participant,session,date,expName,psychopyVersion,OS,frameRate,space_press_continue.keys,space_press_continue.rt,space_press_continue_2.keys,space_press_continue_2.rt,space_press_continue_3.keys,space_press_continue_3.rt,space_press_continue_4.keys,space_press_continue_4.rt,space_press_continue_5.keys,space_press_continue_5.rt,space_press_continue_6.keys,space_press_continue_6.rt,prac_mask_loop_1.thisRepN,prac_mask_loop_1.thisTrialN,prac_mask_loop_1.thisN,prac_mask_loop_1.thisIndex,prac_mask_loop_1.ran,mask_name,prac_mask_loop_2.thisRepN,prac_mask_loop_2.thisTrialN,prac_mask_loop_2.thisN,prac_mask_loop_2.thisIndex,prac_mask_loop_2.ran,mouse_2.x,mouse_2.y,mouse_2.leftButton,mouse_2.midButton,mouse_2.rightButton,mouse_2.clicked_name,similarity,response_time,Pass,mouse_12.x,mouse_12.y,mouse_12.leftButton,mouse_12.midButton,mouse_12.rightButton,mouse_12.clicked_name,prac_loop.thisRepN,prac_loop.thisTrialN,prac_loop.thisN,prac_loop.thisIndex,prac_loop.ran,Pair_type,Image_num,Patch_1_loc,Patch_2_loc,Patch_1_info,Patch_2_info,Patch_1_name,Patch_2_name,mouse_1.x,mouse_1.y,mouse_1.leftButton,mouse_1.midButton,mouse_1.rightButton,mouse_1.time,mouse_1.clicked_name,space_press_continue_7.keys,space_press_continue_7.rt,mask_loop.thisRepN,mask_loop.thisTrialN,mask_loop.thisN,mask_loop.thisIndex,mask_loop.ran,mask_loop_2.thisRepN,mask_loop_2.thisTrialN,mask_loop_2.thisN,mask_loop_2.thisIndex,mask_loop_2.ran,mouse.x,mouse.y,mouse.leftButton,mouse.midButton,mouse.rightButton,mouse.clicked_name,trialNumber,mouse_11.x,mouse_11.y,mouse_11.leftButton,mouse_11.midButton,mouse_11.rightButton,mouse_11.clicked_name,first_pass_loop.thisRepN,first_pass_loop.thisTrialN,first_pass_loop.thisN,first_pass_loop.thisIndex,first_pass_loop.ran,mask_loop_3.thisRepN,mask_loop_3.thisTrialN,mask_loop_3.thisN,mask_loop_3.thisIndex,mask_loop_3.ran,mask_loop_4.thisRepN,mask_loop_4.thisTrialN,mask_loop_4.thisN,mask_loop_4.thisIndex,mask_loop_4.ran,mouse_3.x,mouse_3.y,mouse_3.leftButton,mouse_3.midButton,mouse_3.rightButton,mouse_3.clicked_name,double_pass_loop.thisRepN,double_pass_loop.thisTrialN,double_pass_loop.thisN,double_pass_loop.thisIndex,double_pass_loop.ran,space_exit.keys,space_exit.rt
960382,001,2022-11-20_17h55.32.249,Info_measure_main_exp,2022.2.2,Win32,47.65308554,,,,,,,,,,,,,,,,,,,,,,,,,,,,,,,,,,,,,,,,,,,,,,,,,,,,,,,,,,,,,,,,,,,,,,,,,,,,,,,,,,,,,,,,,,,,,,,,,,,,,,,,,,,,,,,
960382,001,2022-11-20_17h55.32.249,Info_measure_main_exp,2022.2.2,Win32,47.65308554,,,,,,,,,,,,,,,,,,,,,,,,,,,,,,,,,,,,,,,,,,,,,,,,,,,,,,,,,,,,,,,,,,,,,,,,,,,,,,,,,,,,,,,,,,,,,,,,,,,,,,,,,,,,,,,
960382,001,2022-11-20_17h55.32.249,Info_measure_main_exp,2022.2.2,Win32,47.65308554,space,7.2194,,,,,,,,,,,,,,,,,,,,,,,,,,,,,,,,,,,,,,,,,,,,,,,,,,,,,,,,,,,,,,,,,,,,,,,,,,,,,,,,,,,,,,,,,,,,,,,,,,,,,,,,,,,,,
960382,001,2022-11-20_17h55.32.249,Info_measure_main_exp,2022.2.2,Win32,47.65308554,,,space,12.4573,,,,,,,,,,,,,,,,,,,,,,,,,,,,,,,,,,,,,,,,,,,,,,,,,,,,,,,,,,,,,,,,,,,,,,,,,,,,,,,,,,,,,,,,,,,,,,,,,,,,,,,,,,,
960382,001,2022-11-20_17h55.32.249,Info_measure_main_exp,2022.2.2,Win32,47.65308554,,,,,space,5.5673,,,,,,,,,,,,,,,,,,,,,,,,,,,,,,,,,,,,,,,,,,,,,,,,,,,,,,,,,,,,,,,,,,,,,,,,,,,,,,,,,,,,,,,,,,,,,,,,,,,,,,,,,
960382,001,2022-11-20_17h55.32.249,Info_measure_main_exp,2022.2.2,Win32,47.65308554,,,,,,,space,20.7108,,,,,,,,,,,,,,,,,,,,,,,,,,,,,,,,,,,,,,,,,,,,,,,,,,,,,,,,,,,,,,,,,,,,,,,,,,,,,,,,,,,,,,,,,,,,,,,,,,,,,,,
960382,001,2022-11-20_17h55.32.249,Info_measure_main_exp,2022.2.2,Win32,47.65308554,,,,,,,,,space,29.8047,,,,,,,,,,,,,,,,,,,,,,,,,,,,,,,,,,,,,,,,,,,,,,,,,,,,,,,,,,,,,,,,,,,,,,,,,,,,,,,,,,,,,,,,,,,,,,,,,,,,,
960382,001,2022-11-20_17h55.32.249,Info_measure_main_exp,2022.2.2,Win32,47.65308554,,,,,,,,,,,space,19.9564,,,,,,,,,,,,,,,,,,,,,,,,,,,,,,,,,,,,,,,,,,,,,,,,,,,,,,,,,,,,,,,,,,,,,,,,,,,,,,,,,,,,,,,,,,,,,,,,,,,
960382,001,2022-11-20_17h55.32.249,Info_measure_main_exp,2022.2.2,Win32,47.65308554,,,,,,,,,,,,,0,0,0,0,1,masks/mask_001.jpg,,,,,,,,,,,,,,,,,,,,,,,,,,,,,,,,,,,,,,,,,,,,,,,,,,,,,,,,,,,,,,,,,,,,,,,,,,,,,,,,,,,,,,,,,,,,,
960382,001,2022-11-20_17h55.32.249,Info_measure_main_exp,2022.2.2,Win32,47.65308554,,,,,,,,,,,,,0,1,1,3,1,masks/mask_004.jpg,,,,,,,,,,,,,,,,,,,,,,,,,,,,,,,,,,,,,,,,,,,,,,,,,,,,,,,,,,,,,,,,,,,,,,,,,,,,,,,,,,,,,,,,,,,,,
960382,001,2022-11-20_17h55.32.249,Info_measure_main_exp,2022.2.2,Win32,47.65308554,,,,,,,,,,,,,0,2,2,1,1,masks/mask_002.jpg,,,,,,,,,,,,,,,,,,,,,,,,,,,,,,,,,,,,,,,,,,,,,,,,,,,,,,,,,,,,,,,,,,,,,,,,,,,,,,,,,,,,,,,,,,,,,
960382,001,2022-11-20_17h55.32.249,Info_measure_main_exp,2022.2.2,Win32,47.65308554,,,,,,,,,,,,,0,3,3,2,1,masks/mask_003.jpg,,,,,,,,,,,,,,,,,,,,,,,,,,,,,,,,,,,,,,,,,,,,,,,,,,,,,,,,,,,,,,,,,,,,,,,,,,,,,,,,,,,,,,,,,,,,,
960382,001,2022-11-20_17h55.32.249,Info_measure_main_exp,2022.2.2,Win32,47.65308554,,,,,,,,,,,,,0,4,4,4,1,masks/mask_005.jpg,,,,,,,,,,,,,,,,,,,,,,,,,,,,,,,,,,,,,,,,,,,,,,,,,,,,,,,,,,,,,,,,,,,,,,,,,,,,,,,,,,,,,,,,,,,,,
960382,001,2022-11-20_17h55.32.249,Info_measure_main_exp,2022.2.2,Win32,47.65308554,,,,,,,,,,,,,,,,,,masks/mask_002.jpg,0,0,0,1,1,,,,,,,,,,,,,,,,,,,,,,,,,,,,,,,,,,,,,,,,,,,,,,,,,,,,,,,,,,,,,,,,,,,,,,,,,,,,,,,,,,,,,,,,
960382,001,2022-11-20_17h55.32.249,Info_measure_main_exp,2022.2.2,Win32,47.65308554,,,,,,,,,,,,,,,,,,masks/mask_001.jpg,0,1,1,0,1,,,,,,,,,,,,,,,,,,,,,,,,,,,,,,,,,,,,,,,,,,,,,,,,,,,,,,,,,,,,,,,,,,,,,,,,,,,,,,,,,,,,,,,,
960382,001,2022-11-20_17h55.32.249,Info_measure_main_exp,2022.2.2,Win32,47.65308554,,,,,,,,,,,,,,,,,,masks/mask_003.jpg,0,2,2,2,1,,,,,,,,,,,,,,,,,,,,,,,,,,,,,,,,,,,,,,,,,,,,,,,,,,,,,,,,,,,,,,,,,,,,,,,,,,,,,,,,,,,,,,,,
960382,001,2022-11-20_17h55.32.249,Info_measure_main_exp,2022.2.2,Win32,47.65308554,,,,,,,,,,,,,,,,,,masks/mask_004.jpg,0,3,3,3,1,,,,,,,,,,,,,,,,,,,,,,,,,,,,,,,,,,,,,,,,,,,,,,,,,,,,,,,,,,,,,,,,,,,,,,,,,,,,,,,,,,,,,,,,
960382,001,2022-11-20_17h55.32.249,Info_measure_main_exp,2022.2.2,Win32,47.65308554,,,,,,,,,,,,,,,,,,masks/mask_005.jpg,0,4,4,4,1,,,,,,,,,,,,,,,,,,,,,,,,,,,,,,,,,,,,,,,,,,,,,,,,,,,,,,,,,,,,,,,,,,,,,,,,,,,,,,,,,,,,,,,,
960382,001,2022-11-20_17h55.32.249,Info_measure_main_exp,2022.2.2,Win32,47.65308554,,,,,,,,,,,,,,,,,,,,,,,,0.047082228,-0.091511936,1,0,0,response3disk,4,102.0593,1,0.002519926,0.001856756,1,0,0,center_square,0,0,0,0,1,0,131,5,5,2370,2406,prac_patch/patch0002370.jpg,prac_patch/patch0002406.jpg,,,,,,,,,,,,,,,,,,,,,,,,,,,,,,,,,,,,,,,,,,,,,,,,,,,,,,,,,,,,
960382,001,2022-11-20_17h55.32.249,Info_measure_main_exp,2022.2.2,Win32,47.65308554,,,,,,,,,,,,,0,0,0,1,1,masks/mask_002.jpg,,,,,,,,,,,,,,,,,,,,,,,,,,,,,,,,,,,,,,,,,,,,,,,,,,,,,,,,,,,,,,,,,,,,,,,,,,,,,,,,,,,,,,,,,,,,,
960382,001,2022-11-20_17h55.32.249,Info_measure_main_exp,2022.2.2,Win32,47.65308554,,,,,,,,,,,,,0,1,1,3,1,masks/mask_004.jpg,,,,,,,,,,,,,,,,,,,,,,,,,,,,,,,,,,,,,,,,,,,,,,,,,,,,,,,,,,,,,,,,,,,,,,,,,,,,,,,,,,,,,,,,,,,,,
960382,001,2022-11-20_17h55.32.249,Info_measure_main_exp,2022.2.2,Win32,47.65308554,,,,,,,,,,,,,0,2,2,0,1,masks/mask_001.jpg,,,,,,,,,,,,,,,,,,,,,,,,,,,,,,,,,,,,,,,,,,,,,,,,,,,,,,,,,,,,,,,,,,,,,,,,,,,,,,,,,,,,,,,,,,,,,
960382,001,2022-11-20_17h55.32.249,Info_measure_main_exp,2022.2.2,Win32,47.65308554,,,,,,,,,,,,,0,3,3,4,1,masks/mask_005.jpg,,,,,,,,,,,,,,,,,,,,,,,,,,,,,,,,,,,,,,,,,,,,,,,,,,,,,,,,,,,,,,,,,,,,,,,,,,,,,,,,,,,,,,,,,,,,,
960382,001,2022-11-20_17h55.32.249,Info_measure_main_exp,2022.2.2,Win32,47.65308554,,,,,,,,,,,,,0,4,4,2,1,masks/mask_003.jpg,,,,,,,,,,,,,,,,,,,,,,,,,,,,,,,,,,,,,,,,,,,,,,,,,,,,,,,,,,,,,,,,,,,,,,,,,,,,,,,,,,,,,,,,,,,,,
960382,001,2022-11-20_17h55.32.249,Info_measure_main_exp,2022.2.2,Win32,47.65308554,,,,,,,,,,,,,,,,,,masks/mask_004.jpg,0,0,0,3,1,,,,,,,,,,,,,,,,,,,,,,,,,,,,,,,,,,,,,,,,,,,,,,,,,,,,,,,,,,,,,,,,,,,,,,,,,,,,,,,,,,,,,,,,
960382,001,2022-11-20_17h55.32.249,Info_measure_main_exp,2022.2.2,Win32,47.65308554,,,,,,,,,,,,,,,,,,masks/mask_003.jpg,0,1,1,2,1,,,,,,,,,,,,,,,,,,,,,,,,,,,,,,,,,,,,,,,,,,,,,,,,,,,,,,,,,,,,,,,,,,,,,,,,,,,,,,,,,,,,,,,,
960382,001,2022-11-20_17h55.32.249,Info_measure_main_exp,2022.2.2,Win32,47.65308554,,,,,,,,,,,,,,,,,,masks/mask_001.jpg,0,2,2,0,1,,,,,,,,,,,,,,,,,,,,,,,,,,,,,,,,,,,,,,,,,,,,,,,,,,,,,,,,,,,,,,,,,,,,,,,,,,,,,,,,,,,,,,,,
960382,001,2022-11-20_17h55.32.249,Info_measure_main_exp,2022.2.2,Win32,47.65308554,,,,,,,,,,,,,,,,,,masks/mask_002.jpg,0,3,3,1,1,,,,,,,,,,,,,,,,,,,,,,,,,,,,,,,,,,,,,,,,,,,,,,,,,,,,,,,,,,,,,,,,,,,,,,,,,,,,,,,,,,,,,,,,
960382,001,2022-11-20_17h55.32.249,Info_measure_main_exp,2022.2.2,Win32,47.65308554,,,,,,,,,,,,,,,,,,masks/mask_005.jpg,0,4,4,4,1,,,,,,,,,,,,,,,,,,,,,,,,,,,,,,,,,,,,,,,,,,,,,,,,,,,,,,,,,,,,,,,,,,,,,,,,,,,,,,,,,,,,,,,,
960382,001,2022-11-20_17h55.32.249,Info_measure_main_exp,2022.2.2,Win32,47.65308554,,,,,,,,,,,,,,,,,,,,,,,,0.159549055,0.067639257,1,0,0,response1disk,6,114.9142,1,0.006763974,-0.000265268,1,0,0,center_square,0,1,1,2,1,0,131,5,5,2526,2526,prac_patch/patch0002526.jpg,prac_patch/patch0002526.jpg,,,,,,,,,,,,,,,,,,,,,,,,,,,,,,,,,,,,,,,,,,,,,,,,,,,,,,,,,,,,
960382,001,2022-11-20_17h55.32.249,Info_measure_main_exp,2022.2.2,Win32,47.65308554,,,,,,,,,,,,,0,0,0,4,1,masks/mask_005.jpg,,,,,,,,,,,,,,,,,,,,,,,,,,,,,,,,,,,,,,,,,,,,,,,,,,,,,,,,,,,,,,,,,,,,,,,,,,,,,,,,,,,,,,,,,,,,,
960382,001,2022-11-20_17h55.32.249,Info_measure_main_exp,2022.2.2,Win32,47.65308554,,,,,,,,,,,,,0,1,1,0,1,masks/mask_001.jpg,,,,,,,,,,,,,,,,,,,,,,,,,,,,,,,,,,,,,,,,,,,,,,,,,,,,,,,,,,,,,,,,,,,,,,,,,,,,,,,,,,,,,,,,,,,,,
960382,001,2022-11-20_17h55.32.249,Info_measure_main_exp,2022.2.2,Win32,47.65308554,,,,,,,,,,,,,0,2,2,2,1,masks/mask_003.jpg,,,,,,,,,,,,,,,,,,,,,,,,,,,,,,,,,,,,,,,,,,,,,,,,,,,,,,,,,,,,,,,,,,,,,,,,,,,,,,,,,,,,,,,,,,,,,
960382,001,2022-11-20_17h55.32.249,Info_measure_main_exp,2022.2.2,Win32,47.65308554,,,,,,,,,,,,,0,3,3,1,1,masks/mask_002.jpg,,,,,,,,,,,,,,,,,,,,,,,,,,,,,,,,,,,,,,,,,,,,,,,,,,,,,,,,,,,,,,,,,,,,,,,,,,,,,,,,,,,,,,,,,,,,,
960382,001,2022-11-20_17h55.32.249,Info_measure_main_exp,2022.2.2,Win32,47.65308554,,,,,,,,,,,,,0,4,4,3,1,masks/mask_004.jpg,,,,,,,,,,,,,,,,,,,,,,,,,,,,,,,,,,,,,,,,,,,,,,,,,,,,,,,,,,,,,,,,,,,,,,,,,,,,,,,,,,,,,,,,,,,,,
960382,001,2022-11-20_17h55.32.249,Info_measure_main_exp,2022.2.2,Win32,47.65308554,,,,,,,,,,,,,,,,,,masks/mask_005.jpg,0,0,0,4,1,,,,,,,,,,,,,,,,,,,,,,,,,,,,,,,,,,,,,,,,,,,,,,,,,,,,,,,,,,,,,,,,,,,,,,,,,,,,,,,,,,,,,,,,
960382,001,2022-11-20_17h55.32.249,Info_measure_main_exp,2022.2.2,Win32,47.65308554,,,,,,,,,,,,,,,,,,masks/mask_002.jpg,0,1,1,1,1,,,,,,,,,,,,,,,,,,,,,,,,,,,,,,,,,,,,,,,,,,,,,,,,,,,,,,,,,,,,,,,,,,,,,,,,,,,,,,,,,,,,,,,,
960382,001,2022-11-20_17h55.32.249,Info_measure_main_exp,2022.2.2,Win32,47.65308554,,,,,,,,,,,,,,,,,,masks/mask_003.jpg,0,2,2,2,1,,,,,,,,,,,,,,,,,,,,,,,,,,,,,,,,,,,,,,,,,,,,,,,,,,,,,,,,,,,,,,,,,,,,,,,,,,,,,,,,,,,,,,,,
960382,001,2022-11-20_17h55.32.249,Info_measure_main_exp,2022.2.2,Win32,47.65308554,,,,,,,,,,,,,,,,,,masks/mask_001.jpg,0,3,3,0,1,,,,,,,,,,,,,,,,,,,,,,,,,,,,,,,,,,,,,,,,,,,,,,,,,,,,,,,,,,,,,,,,,,,,,,,,,,,,,,,,,,,,,,,,
960382,001,2022-11-20_17h55.32.249,Info_measure_main_exp,2022.2.2,Win32,47.65308554,,,,,,,,,,,,,,,,,,masks/mask_004.jpg,0,4,4,3,1,,,,,,,,,,,,,,,,,,,,,,,,,,,,,,,,,,,,,,,,,,,,,,,,,,,,,,,,,,,,,,,,,,,,,,,,,,,,,,,,,,,,,,,,
960382,001,2022-11-20_17h55.32.249,Info_measure_main_exp,2022.2.2,Win32,47.65308554,,,,,,,,,,,,,,,,,,,,,,,,0.164854095,-0.043766578,1,0,0,response3disk,5,127.3119,1,0.003580918,0.007161796,1,0,0,center_square,0,2,2,1,1,0,131,5,5,2514,2490,prac_patch/patch0002514.jpg,prac_patch/patch0002490.jpg,,,,,,,,,,,,,,,,,,,,,,,,,,,,,,,,,,,,,,,,,,,,,,,,,,,,,,,,,,,,
960382,001,2022-11-20_17h55.32.249,Info_measure_main_exp,2022.2.2,Win32,47.65308554,,,,,,,,,,,,,,,,,,,,,,,,,,,,,,,,,,,,,,,,,,,,,,,,,,,,,,,,,,,space,1.8906,,,,,,,,,,,,,,,,,,,,,,,,,,,,,,,,,,,,,,,,,,,,,,,,,,,
960382,001,2022-11-20_17h55.32.249,Info_measure_main_exp,2022.2.2,Win32,47.65308554,,,,,,,,,,,,,,,,,,masks/mask_005.jpg,,,,,,,,,,,,,,,,,,,,,,,,,,,,,,,,,,,,,,,,,,,0,0,0,4,1,,,,,,,,,,,,,,,,,,,,,,,,,,,,,,,,,,,,,,,,,,,,,,
960382,001,2022-11-20_17h55.32.249,Info_measure_main_exp,2022.2.2,Win32,47.65308554,,,,,,,,,,,,,,,,,,masks/mask_001.jpg,,,,,,,,,,,,,,,,,,,,,,,,,,,,,,,,,,,,,,,,,,,0,1,1,0,1,,,,,,,,,,,,,,,,,,,,,,,,,,,,,,,,,,,,,,,,,,,,,,
960382,001,2022-11-20_17h55.32.249,Info_measure_main_exp,2022.2.2,Win32,47.65308554,,,,,,,,,,,,,,,,,,masks/mask_002.jpg,,,,,,,,,,,,,,,,,,,,,,,,,,,,,,,,,,,,,,,,,,,0,2,2,1,1,,,,,,,,,,,,,,,,,,,,,,,,,,,,,,,,,,,,,,,,,,,,,,
960382,001,2022-11-20_17h55.32.249,Info_measure_main_exp,2022.2.2,Win32,47.65308554,,,,,,,,,,,,,,,,,,masks/mask_003.jpg,,,,,,,,,,,,,,,,,,,,,,,,,,,,,,,,,,,,,,,,,,,0,3,3,2,1,,,,,,,,,,,,,,,,,,,,,,,,,,,,,,,,,,,,,,,,,,,,,,
960382,001,2022-11-20_17h55.32.249,Info_measure_main_exp,2022.2.2,Win32,47.65308554,,,,,,,,,,,,,,,,,,masks/mask_004.jpg,,,,,,,,,,,,,,,,,,,,,,,,,,,,,,,,,,,,,,,,,,,0,4,4,3,1,,,,,,,,,,,,,,,,,,,,,,,,,,,,,,,,,,,,,,,,,,,,,,
960382,001,2022-11-20_17h55.32.249,Info_measure_main_exp,2022.2.2,Win32,47.65308554,,,,,,,,,,,,,,,,,,masks/mask_003.jpg,,,,,,,,,,,,,,,,,,,,,,,,,,,,,,,,,,,,,,,,,,,,,,,,0,0,0,2,1,,,,,,,,,,,,,,,,,,,,,,,,,,,,,,,,,,,,,,,,,
960382,001,2022-11-20_17h55.32.249,Info_measure_main_exp,2022.2.2,Win32,47.65308554,,,,,,,,,,,,,,,,,,masks/mask_002.jpg,,,,,,,,,,,,,,,,,,,,,,,,,,,,,,,,,,,,,,,,,,,,,,,,0,1,1,1,1,,,,,,,,,,,,,,,,,,,,,,,,,,,,,,,,,,,,,,,,,
960382,001,2022-11-20_17h55.32.249,Info_measure_main_exp,2022.2.2,Win32,47.65308554,,,,,,,,,,,,,,,,,,masks/mask_004.jpg,,,,,,,,,,,,,,,,,,,,,,,,,,,,,,,,,,,,,,,,,,,,,,,,0,2,2,3,1,,,,,,,,,,,,,,,,,,,,,,,,,,,,,,,,,,,,,,,,,
960382,001,2022-11-20_17h55.32.249,Info_measure_main_exp,2022.2.2,Win32,47.65308554,,,,,,,,,,,,,,,,,,masks/mask_001.jpg,,,,,,,,,,,,,,,,,,,,,,,,,,,,,,,,,,,,,,,,,,,,,,,,0,3,3,0,1,,,,,,,,,,,,,,,,,,,,,,,,,,,,,,,,,,,,,,,,,
960382,001,2022-11-20_17h55.32.249,Info_measure_main_exp,2022.2.2,Win32,47.65308554,,,,,,,,,,,,,,,,,,masks/mask_005.jpg,,,,,,,,,,,,,,,,,,,,,,,,,,,,,,,,,,,,,,,,,,,,,,,,0,4,4,4,1,,,,,,,,,,,,,,,,,,,,,,,,,,,,,,,,,,,,,,,,,
960382,001,2022-11-20_17h55.32.249,Info_measure_main_exp,2022.2.2,Win32,47.65308554,,,,,,,,,,,,,,,,,,,,,,,,,,,,,,4,3.0351,1,,,,,,,,,,,,0,131,5,5,1986,1974,absent_patch/patch0001986.jpg,absent_patch/patch0001974.jpg,,,,,,,,,,,,,,,,,,,,0.073607427,-0.128647215,1,0,0,response3disk,1,-0.009151145,0.008222787,1,0,0,center_square,0,0,0,25,1,,,,,,,,,,,,,,,,,,,,,,,
960382,001,2022-11-20_17h55.32.249,Info_measure_main_exp,2022.2.2,Win32,47.65308554,,,,,,,,,,,,,,,,,,masks/mask_004.jpg,,,,,,,,,,,,,,,,,,,,,,,,,,,,,,,,,,,,,,,,,,,0,0,0,3,1,,,,,,,,,,,,,,,,,,,,,,,,,,,,,,,,,,,,,,,,,,,,,,
960382,001,2022-11-20_17h55.32.249,Info_measure_main_exp,2022.2.2,Win32,47.65308554,,,,,,,,,,,,,,,,,,masks/mask_001.jpg,,,,,,,,,,,,,,,,,,,,,,,,,,,,,,,,,,,,,,,,,,,0,1,1,0,1,,,,,,,,,,,,,,,,,,,,,,,,,,,,,,,,,,,,,,,,,,,,,,
960382,001,2022-11-20_17h55.32.249,Info_measure_main_exp,2022.2.2,Win32,47.65308554,,,,,,,,,,,,,,,,,,masks/mask_005.jpg,,,,,,,,,,,,,,,,,,,,,,,,,,,,,,,,,,,,,,,,,,,0,2,2,4,1,,,,,,,,,,,,,,,,,,,,,,,,,,,,,,,,,,,,,,,,,,,,,,
960382,001,2022-11-20_17h55.32.249,Info_measure_main_exp,2022.2.2,Win32,47.65308554,,,,,,,,,,,,,,,,,,masks/mask_003.jpg,,,,,,,,,,,,,,,,,,,,,,,,,,,,,,,,,,,,,,,,,,,0,3,3,2,1,,,,,,,,,,,,,,,,,,,,,,,,,,,,,,,,,,,,,,,,,,,,,,
960382,001,2022-11-20_17h55.32.249,Info_measure_main_exp,2022.2.2,Win32,47.65308554,,,,,,,,,,,,,,,,,,masks/mask_002.jpg,,,,,,,,,,,,,,,,,,,,,,,,,,,,,,,,,,,,,,,,,,,0,4,4,1,1,,,,,,,,,,,,,,,,,,,,,,,,,,,,,,,,,,,,,,,,,,,,,,
960382,001,2022-11-20_17h55.32.249,Info_measure_main_exp,2022.2.2,Win32,47.65308554,,,,,,,,,,,,,,,,,,masks/mask_004.jpg,,,,,,,,,,,,,,,,,,,,,,,,,,,,,,,,,,,,,,,,,,,,,,,,0,0,0,3,1,,,,,,,,,,,,,,,,,,,,,,,,,,,,,,,,,,,,,,,,,
960382,001,2022-11-20_17h55.32.249,Info_measure_main_exp,2022.2.2,Win32,47.65308554,,,,,,,,,,,,,,,,,,masks/mask_001.jpg,,,,,,,,,,,,,,,,,,,,,,,,,,,,,,,,,,,,,,,,,,,,,,,,0,1,1,0,1,,,,,,,,,,,,,,,,,,,,,,,,,,,,,,,,,,,,,,,,,
960382,001,2022-11-20_17h55.32.249,Info_measure_main_exp,2022.2.2,Win32,47.65308554,,,,,,,,,,,,,,,,,,masks/mask_002.jpg,,,,,,,,,,,,,,,,,,,,,,,,,,,,,,,,,,,,,,,,,,,,,,,,0,2,2,1,1,,,,,,,,,,,,,,,,,,,,,,,,,,,,,,,,,,,,,,,,,
960382,001,2022-11-20_17h55.32.249,Info_measure_main_exp,2022.2.2,Win32,47.65308554,,,,,,,,,,,,,,,,,,masks/mask_003.jpg,,,,,,,,,,,,,,,,,,,,,,,,,,,,,,,,,,,,,,,,,,,,,,,,0,3,3,2,1,,,,,,,,,,,,,,,,,,,,,,,,,,,,,,,,,,,,,,,,,
960382,001,2022-11-20_17h55.32.249,Info_measure_main_exp,2022.2.2,Win32,47.65308554,,,,,,,,,,,,,,,,,,masks/mask_005.jpg,,,,,,,,,,,,,,,,,,,,,,,,,,,,,,,,,,,,,,,,,,,,,,,,0,4,4,4,1,,,,,,,,,,,,,,,,,,,,,,,,,,,,,,,,,,,,,,,,,
960382,001,2022-11-20_17h55.32.249,Info_measure_main_exp,2022.2.2,Win32,47.65308554,,,,,,,,,,,,,,,,,,,,,,,,,,,,,,4,5.8395,1,,,,,,,,,,,,0,131,5,5,2190,1950,absent_patch/patch0002190.jpg,absent_patch/patch0001950.jpg,,,,,,,,,,,,,,,,,,,,0.065119412,-0.148806382,1,0,0,response3disk,2,0.00464191,-0.008753324,1,0,0,center_square,0,1,1,73,1,,,,,,,,,,,,,,,,,,,,,,,
960382,001,2022-11-20_17h55.32.249,Info_measure_main_exp,2022.2.2,Win32,47.65308554,,,,,,,,,,,,,,,,,,masks/mask_001.jpg,,,,,,,,,,,,,,,,,,,,,,,,,,,,,,,,,,,,,,,,,,,0,0,0,0,1,,,,,,,,,,,,,,,,,,,,,,,,,,,,,,,,,,,,,,,,,,,,,,
960382,001,2022-11-20_17h55.32.249,Info_measure_main_exp,2022.2.2,Win32,47.65308554,,,,,,,,,,,,,,,,,,masks/mask_005.jpg,,,,,,,,,,,,,,,,,,,,,,,,,,,,,,,,,,,,,,,,,,,0,1,1,4,1,,,,,,,,,,,,,,,,,,,,,,,,,,,,,,,,,,,,,,,,,,,,,,
960382,001,2022-11-20_17h55.32.249,Info_measure_main_exp,2022.2.2,Win32,47.65308554,,,,,,,,,,,,,,,,,,masks/mask_004.jpg,,,,,,,,,,,,,,,,,,,,,,,,,,,,,,,,,,,,,,,,,,,0,2,2,3,1,,,,,,,,,,,,,,,,,,,,,,,,,,,,,,,,,,,,,,,,,,,,,,
960382,001,2022-11-20_17h55.32.249,Info_measure_main_exp,2022.2.2,Win32,47.65308554,,,,,,,,,,,,,,,,,,masks/mask_002.jpg,,,,,,,,,,,,,,,,,,,,,,,,,,,,,,,,,,,,,,,,,,,0,3,3,1,1,,,,,,,,,,,,,,,,,,,,,,,,,,,,,,,,,,,,,,,,,,,,,,
960382,001,2022-11-20_17h55.32.249,Info_measure_main_exp,2022.2.2,Win32,47.65308554,,,,,,,,,,,,,,,,,,masks/mask_003.jpg,,,,,,,,,,,,,,,,,,,,,,,,,,,,,,,,,,,,,,,,,,,0,4,4,2,1,,,,,,,,,,,,,,,,,,,,,,,,,,,,,,,,,,,,,,,,,,,,,,
960382,001,2022-11-20_17h55.32.249,Info_measure_main_exp,2022.2.2,Win32,47.65308554,,,,,,,,,,,,,,,,,,masks/mask_002.jpg,,,,,,,,,,,,,,,,,,,,,,,,,,,,,,,,,,,,,,,,,,,,,,,,0,0,0,1,1,,,,,,,,,,,,,,,,,,,,,,,,,,,,,,,,,,,,,,,,,
960382,001,2022-11-20_17h55.32.249,Info_measure_main_exp,2022.2.2,Win32,47.65308554,,,,,,,,,,,,,,,,,,masks/mask_003.jpg,,,,,,,,,,,,,,,,,,,,,,,,,,,,,,,,,,,,,,,,,,,,,,,,0,1,1,2,1,,,,,,,,,,,,,,,,,,,,,,,,,,,,,,,,,,,,,,,,,
960382,001,2022-11-20_17h55.32.249,Info_measure_main_exp,2022.2.2,Win32,47.65308554,,,,,,,,,,,,,,,,,,masks/mask_005.jpg,,,,,,,,,,,,,,,,,,,,,,,,,,,,,,,,,,,,,,,,,,,,,,,,0,2,2,4,1,,,,,,,,,,,,,,,,,,,,,,,,,,,,,,,,,,,,,,,,,
960382,001,2022-11-20_17h55.32.249,Info_measure_main_exp,2022.2.2,Win32,47.65308554,,,,,,,,,,,,,,,,,,masks/mask_004.jpg,,,,,,,,,,,,,,,,,,,,,,,,,,,,,,,,,,,,,,,,,,,,,,,,0,3,3,3,1,,,,,,,,,,,,,,,,,,,,,,,,,,,,,,,,,,,,,,,,,
960382,001,2022-11-20_17h55.32.249,Info_measure_main_exp,2022.2.2,Win32,47.65308554,,,,,,,,,,,,,,,,,,masks/mask_001.jpg,,,,,,,,,,,,,,,,,,,,,,,,,,,,,,,,,,,,,,,,,,,,,,,,0,4,4,0,1,,,,,,,,,,,,,,,,,,,,,,,,,,,,,,,,,,,,,,,,,
960382,001,2022-11-20_17h55.32.249,Info_measure_main_exp,2022.2.2,Win32,47.65308554,,,,,,,,,,,,,,,,,,,,,,,,,,,,,,6,3.73,1,,,,,,,,,,,,0,131,5,5,2274,1950,absent_patch/patch0002274.jpg,absent_patch/patch0001950.jpg,,,,,,,,,,,,,,,,,,,,0.147877984,0.034747986,1,0,0,response1disk,3,0.002519926,-0.005570308,1,0,0,center_square,0,2,2,10,1,,,,,,,,,,,,,,,,,,,,,,,
960382,001,2022-11-20_17h55.32.249,Info_measure_main_exp,2022.2.2,Win32,47.65308554,,,,,,,,,,,,,,,,,,masks/mask_001.jpg,,,,,,,,,,,,,,,,,,,,,,,,,,,,,,,,,,,,,,,,,,,0,0,0,0,1,,,,,,,,,,,,,,,,,,,,,,,,,,,,,,,,,,,,,,,,,,,,,,
960382,001,2022-11-20_17h55.32.249,Info_measure_main_exp,2022.2.2,Win32,47.65308554,,,,,,,,,,,,,,,,,,masks/mask_002.jpg,,,,,,,,,,,,,,,,,,,,,,,,,,,,,,,,,,,,,,,,,,,0,1,1,1,1,,,,,,,,,,,,,,,,,,,,,,,,,,,,,,,,,,,,,,,,,,,,,,
960382,001,2022-11-20_17h55.32.249,Info_measure_main_exp,2022.2.2,Win32,47.65308554,,,,,,,,,,,,,,,,,,masks/mask_004.jpg,,,,,,,,,,,,,,,,,,,,,,,,,,,,,,,,,,,,,,,,,,,0,2,2,3,1,,,,,,,,,,,,,,,,,,,,,,,,,,,,,,,,,,,,,,,,,,,,,,
960382,001,2022-11-20_17h55.32.249,Info_measure_main_exp,2022.2.2,Win32,47.65308554,,,,,,,,,,,,,,,,,,masks/mask_005.jpg,,,,,,,,,,,,,,,,,,,,,,,,,,,,,,,,,,,,,,,,,,,0,3,3,4,1,,,,,,,,,,,,,,,,,,,,,,,,,,,,,,,,,,,,,,,,,,,,,,
960382,001,2022-11-20_17h55.32.249,Info_measure_main_exp,2022.2.2,Win32,47.65308554,,,,,,,,,,,,,,,,,,masks/mask_003.jpg,,,,,,,,,,,,,,,,,,,,,,,,,,,,,,,,,,,,,,,,,,,0,4,4,2,1,,,,,,,,,,,,,,,,,,,,,,,,,,,,,,,,,,,,,,,,,,,,,,
960382,001,2022-11-20_17h55.32.249,Info_measure_main_exp,2022.2.2,Win32,47.65308554,,,,,,,,,,,,,,,,,,masks/mask_003.jpg,,,,,,,,,,,,,,,,,,,,,,,,,,,,,,,,,,,,,,,,,,,,,,,,0,0,0,2,1,,,,,,,,,,,,,,,,,,,,,,,,,,,,,,,,,,,,,,,,,
960382,001,2022-11-20_17h55.32.249,Info_measure_main_exp,2022.2.2,Win32,47.65308554,,,,,,,,,,,,,,,,,,masks/mask_002.jpg,,,,,,,,,,,,,,,,,,,,,,,,,,,,,,,,,,,,,,,,,,,,,,,,0,1,1,1,1,,,,,,,,,,,,,,,,,,,,,,,,,,,,,,,,,,,,,,,,,
960382,001,2022-11-20_17h55.32.249,Info_measure_main_exp,2022.2.2,Win32,47.65308554,,,,,,,,,,,,,,,,,,masks/mask_004.jpg,,,,,,,,,,,,,,,,,,,,,,,,,,,,,,,,,,,,,,,,,,,,,,,,0,2,2,3,1,,,,,,,,,,,,,,,,,,,,,,,,,,,,,,,,,,,,,,,,,
960382,001,2022-11-20_17h55.32.249,Info_measure_main_exp,2022.2.2,Win32,47.65308554,,,,,,,,,,,,,,,,,,masks/mask_001.jpg,,,,,,,,,,,,,,,,,,,,,,,,,,,,,,,,,,,,,,,,,,,,,,,,0,3,3,0,1,,,,,,,,,,,,,,,,,,,,,,,,,,,,,,,,,,,,,,,,,
960382,001,2022-11-20_17h55.32.249,Info_measure_main_exp,2022.2.2,Win32,47.65308554,,,,,,,,,,,,,,,,,,masks/mask_005.jpg,,,,,,,,,,,,,,,,,,,,,,,,,,,,,,,,,,,,,,,,,,,,,,,,0,4,4,4,1,,,,,,,,,,,,,,,,,,,,,,,,,,,,,,,,,,,,,,,,,
960382,001,2022-11-20_17h55.32.249,Info_measure_main_exp,2022.2.2,Win32,47.65308554,,,,,,,,,,,,,,,,,,,,,,,,,,,,,,2,3.6645,1,,,,,,,,,,,,0,131,5,5,1950,2178,absent_patch/patch0001950.jpg,absent_patch/patch0002178.jpg,,,,,,,,,,,,,,,,,,,,-0.135411108,-0.031034475,1,0,0,response5disk,4,0.005702902,-0.003448284,1,0,0,center_square,0,3,3,61,1,,,,,,,,,,,,,,,,,,,,,,,
960382,001,2022-11-20_17h55.32.249,Info_measure_main_exp,2022.2.2,Win32,47.65308554,,,,,,,,,,,,,,,,,,masks/mask_005.jpg,,,,,,,,,,,,,,,,,,,,,,,,,,,,,,,,,,,,,,,,,,,0,0,0,4,1,,,,,,,,,,,,,,,,,,,,,,,,,,,,,,,,,,,,,,,,,,,,,,
960382,001,2022-11-20_17h55.32.249,Info_measure_main_exp,2022.2.2,Win32,47.65308554,,,,,,,,,,,,,,,,,,masks/mask_004.jpg,,,,,,,,,,,,,,,,,,,,,,,,,,,,,,,,,,,,,,,,,,,0,1,1,3,1,,,,,,,,,,,,,,,,,,,,,,,,,,,,,,,,,,,,,,,,,,,,,,
960382,001,2022-11-20_17h55.32.249,Info_measure_main_exp,2022.2.2,Win32,47.65308554,,,,,,,,,,,,,,,,,,masks/mask_001.jpg,,,,,,,,,,,,,,,,,,,,,,,,,,,,,,,,,,,,,,,,,,,0,2,2,0,1,,,,,,,,,,,,,,,,,,,,,,,,,,,,,,,,,,,,,,,,,,,,,,
960382,001,2022-11-20_17h55.32.249,Info_measure_main_exp,2022.2.2,Win32,47.65308554,,,,,,,,,,,,,,,,,,masks/mask_002.jpg,,,,,,,,,,,,,,,,,,,,,,,,,,,,,,,,,,,,,,,,,,,0,3,3,1,1,,,,,,,,,,,,,,,,,,,,,,,,,,,,,,,,,,,,,,,,,,,,,,
960382,001,2022-11-20_17h55.32.249,Info_measure_main_exp,2022.2.2,Win32,47.65308554,,,,,,,,,,,,,,,,,,masks/mask_003.jpg,,,,,,,,,,,,,,,,,,,,,,,,,,,,,,,,,,,,,,,,,,,0,4,4,2,1,,,,,,,,,,,,,,,,,,,,,,,,,,,,,,,,,,,,,,,,,,,,,,
960382,001,2022-11-20_17h55.32.249,Info_measure_main_exp,2022.2.2,Win32,47.65308554,,,,,,,,,,,,,,,,,,masks/mask_004.jpg,,,,,,,,,,,,,,,,,,,,,,,,,,,,,,,,,,,,,,,,,,,,,,,,0,0,0,3,1,,,,,,,,,,,,,,,,,,,,,,,,,,,,,,,,,,,,,,,,,
960382,001,2022-11-20_17h55.32.249,Info_measure_main_exp,2022.2.2,Win32,47.65308554,,,,,,,,,,,,,,,,,,masks/mask_002.jpg,,,,,,,,,,,,,,,,,,,,,,,,,,,,,,,,,,,,,,,,,,,,,,,,0,1,1,1,1,,,,,,,,,,,,,,,,,,,,,,,,,,,,,,,,,,,,,,,,,
960382,001,2022-11-20_17h55.32.249,Info_measure_main_exp,2022.2.2,Win32,47.65308554,,,,,,,,,,,,,,,,,,masks/mask_005.jpg,,,,,,,,,,,,,,,,,,,,,,,,,,,,,,,,,,,,,,,,,,,,,,,,0,2,2,4,1,,,,,,,,,,,,,,,,,,,,,,,,,,,,,,,,,,,,,,,,,
960382,001,2022-11-20_17h55.32.249,Info_measure_main_exp,2022.2.2,Win32,47.65308554,,,,,,,,,,,,,,,,,,masks/mask_001.jpg,,,,,,,,,,,,,,,,,,,,,,,,,,,,,,,,,,,,,,,,,,,,,,,,0,3,3,0,1,,,,,,,,,,,,,,,,,,,,,,,,,,,,,,,,,,,,,,,,,
960382,001,2022-11-20_17h55.32.249,Info_measure_main_exp,2022.2.2,Win32,47.65308554,,,,,,,,,,,,,,,,,,masks/mask_003.jpg,,,,,,,,,,,,,,,,,,,,,,,,,,,,,,,,,,,,,,,,,,,,,,,,0,4,4,2,1,,,,,,,,,,,,,,,,,,,,,,,,,,,,,,,,,,,,,,,,,
960382,001,2022-11-20_17h55.32.249,Info_measure_main_exp,2022.2.2,Win32,47.65308554,,,,,,,,,,,,,,,,,,,,,,,,,,,,,,4,2.0317,1,,,,,,,,,,,,0,131,5,5,2142,2166,absent_patch/patch0002142.jpg,absent_patch/patch0002166.jpg,,,,,,,,,,,,,,,,,,,,0.065119412,-0.103183048,1,0,0,response3disk,5,0.001458935,0.006100804,1,0,0,center_square,0,4,4,66,1,,,,,,,,,,,,,,,,,,,,,,,
960382,001,2022-11-20_17h55.32.249,Info_measure_main_exp,2022.2.2,Win32,47.65308554,,,,,,,,,,,,,,,,,,masks/mask_002.jpg,,,,,,,,,,,,,,,,,,,,,,,,,,,,,,,,,,,,,,,,,,,0,0,0,1,1,,,,,,,,,,,,,,,,,,,,,,,,,,,,,,,,,,,,,,,,,,,,,,
960382,001,2022-11-20_17h55.32.249,Info_measure_main_exp,2022.2.2,Win32,47.65308554,,,,,,,,,,,,,,,,,,masks/mask_003.jpg,,,,,,,,,,,,,,,,,,,,,,,,,,,,,,,,,,,,,,,,,,,0,1,1,2,1,,,,,,,,,,,,,,,,,,,,,,,,,,,,,,,,,,,,,,,,,,,,,,
960382,001,2022-11-20_17h55.32.249,Info_measure_main_exp,2022.2.2,Win32,47.65308554,,,,,,,,,,,,,,,,,,masks/mask_005.jpg,,,,,,,,,,,,,,,,,,,,,,,,,,,,,,,,,,,,,,,,,,,0,2,2,4,1,,,,,,,,,,,,,,,,,,,,,,,,,,,,,,,,,,,,,,,,,,,,,,
960382,001,2022-11-20_17h55.32.249,Info_measure_main_exp,2022.2.2,Win32,47.65308554,,,,,,,,,,,,,,,,,,masks/mask_001.jpg,,,,,,,,,,,,,,,,,,,,,,,,,,,,,,,,,,,,,,,,,,,0,3,3,0,1,,,,,,,,,,,,,,,,,,,,,,,,,,,,,,,,,,,,,,,,,,,,,,
960382,001,2022-11-20_17h55.32.249,Info_measure_main_exp,2022.2.2,Win32,47.65308554,,,,,,,,,,,,,,,,,,masks/mask_004.jpg,,,,,,,,,,,,,,,,,,,,,,,,,,,,,,,,,,,,,,,,,,,0,4,4,3,1,,,,,,,,,,,,,,,,,,,,,,,,,,,,,,,,,,,,,,,,,,,,,,
960382,001,2022-11-20_17h55.32.249,Info_measure_main_exp,2022.2.2,Win32,47.65308554,,,,,,,,,,,,,,,,,,masks/mask_002.jpg,,,,,,,,,,,,,,,,,,,,,,,,,,,,,,,,,,,,,,,,,,,,,,,,0,0,0,1,1,,,,,,,,,,,,,,,,,,,,,,,,,,,,,,,,,,,,,,,,,
960382,001,2022-11-20_17h55.32.249,Info_measure_main_exp,2022.2.2,Win32,47.65308554,,,,,,,,,,,,,,,,,,masks/mask_003.jpg,,,,,,,,,,,,,,,,,,,,,,,,,,,,,,,,,,,,,,,,,,,,,,,,0,1,1,2,1,,,,,,,,,,,,,,,,,,,,,,,,,,,,,,,,,,,,,,,,,
960382,001,2022-11-20_17h55.32.249,Info_measure_main_exp,2022.2.2,Win32,47.65308554,,,,,,,,,,,,,,,,,,masks/mask_005.jpg,,,,,,,,,,,,,,,,,,,,,,,,,,,,,,,,,,,,,,,,,,,,,,,,0,2,2,4,1,,,,,,,,,,,,,,,,,,,,,,,,,,,,,,,,,,,,,,,,,
960382,001,2022-11-20_17h55.32.249,Info_measure_main_exp,2022.2.2,Win32,47.65308554,,,,,,,,,,,,,,,,,,masks/mask_001.jpg,,,,,,,,,,,,,,,,,,,,,,,,,,,,,,,,,,,,,,,,,,,,,,,,0,3,3,0,1,,,,,,,,,,,,,,,,,,,,,,,,,,,,,,,,,,,,,,,,,
960382,001,2022-11-20_17h55.32.249,Info_measure_main_exp,2022.2.2,Win32,47.65308554,,,,,,,,,,,,,,,,,,masks/mask_004.jpg,,,,,,,,,,,,,,,,,,,,,,,,,,,,,,,,,,,,,,,,,,,,,,,,0,4,4,3,1,,,,,,,,,,,,,,,,,,,,,,,,,,,,,,,,,,,,,,,,,
960382,001,2022-11-20_17h55.32.249,Info_measure_main_exp,2022.2.2,Win32,47.65308554,,,,,,,,,,,,,,,,,,,,,,,,,,,,,,4,5.2709,1,,,,,,,,,,,,0,131,5,5,2082,2178,absent_patch/patch0002082.jpg,absent_patch/patch0002178.jpg,,,,,,,,,,,,,,,,,,,,0.016312981,-0.121220151,1,0,0,response3disk,6,0.005702902,-0.004509276,1,0,0,center_square,0,5,5,2,1,,,,,,,,,,,,,,,,,,,,,,,
960382,001,2022-11-20_17h55.32.249,Info_measure_main_exp,2022.2.2,Win32,47.65308554,,,,,,,,,,,,,,,,,,masks/mask_004.jpg,,,,,,,,,,,,,,,,,,,,,,,,,,,,,,,,,,,,,,,,,,,0,0,0,3,1,,,,,,,,,,,,,,,,,,,,,,,,,,,,,,,,,,,,,,,,,,,,,,
960382,001,2022-11-20_17h55.32.249,Info_measure_main_exp,2022.2.2,Win32,47.65308554,,,,,,,,,,,,,,,,,,masks/mask_002.jpg,,,,,,,,,,,,,,,,,,,,,,,,,,,,,,,,,,,,,,,,,,,0,1,1,1,1,,,,,,,,,,,,,,,,,,,,,,,,,,,,,,,,,,,,,,,,,,,,,,
960382,001,2022-11-20_17h55.32.249,Info_measure_main_exp,2022.2.2,Win32,47.65308554,,,,,,,,,,,,,,,,,,masks/mask_001.jpg,,,,,,,,,,,,,,,,,,,,,,,,,,,,,,,,,,,,,,,,,,,0,2,2,0,1,,,,,,,,,,,,,,,,,,,,,,,,,,,,,,,,,,,,,,,,,,,,,,
960382,001,2022-11-20_17h55.32.249,Info_measure_main_exp,2022.2.2,Win32,47.65308554,,,,,,,,,,,,,,,,,,masks/mask_003.jpg,,,,,,,,,,,,,,,,,,,,,,,,,,,,,,,,,,,,,,,,,,,0,3,3,2,1,,,,,,,,,,,,,,,,,,,,,,,,,,,,,,,,,,,,,,,,,,,,,,
960382,001,2022-11-20_17h55.32.249,Info_measure_main_exp,2022.2.2,Win32,47.65308554,,,,,,,,,,,,,,,,,,masks/mask_005.jpg,,,,,,,,,,,,,,,,,,,,,,,,,,,,,,,,,,,,,,,,,,,0,4,4,4,1,,,,,,,,,,,,,,,,,,,,,,,,,,,,,,,,,,,,,,,,,,,,,,
960382,001,2022-11-20_17h55.32.249,Info_measure_main_exp,2022.2.2,Win32,47.65308554,,,,,,,,,,,,,,,,,,masks/mask_004.jpg,,,,,,,,,,,,,,,,,,,,,,,,,,,,,,,,,,,,,,,,,,,,,,,,0,0,0,3,1,,,,,,,,,,,,,,,,,,,,,,,,,,,,,,,,,,,,,,,,,
960382,001,2022-11-20_17h55.32.249,Info_measure_main_exp,2022.2.2,Win32,47.65308554,,,,,,,,,,,,,,,,,,masks/mask_002.jpg,,,,,,,,,,,,,,,,,,,,,,,,,,,,,,,,,,,,,,,,,,,,,,,,0,1,1,1,1,,,,,,,,,,,,,,,,,,,,,,,,,,,,,,,,,,,,,,,,,
960382,001,2022-11-20_17h55.32.249,Info_measure_main_exp,2022.2.2,Win32,47.65308554,,,,,,,,,,,,,,,,,,masks/mask_003.jpg,,,,,,,,,,,,,,,,,,,,,,,,,,,,,,,,,,,,,,,,,,,,,,,,0,2,2,2,1,,,,,,,,,,,,,,,,,,,,,,,,,,,,,,,,,,,,,,,,,
960382,001,2022-11-20_17h55.32.249,Info_measure_main_exp,2022.2.2,Win32,47.65308554,,,,,,,,,,,,,,,,,,masks/mask_005.jpg,,,,,,,,,,,,,,,,,,,,,,,,,,,,,,,,,,,,,,,,,,,,,,,,0,3,3,4,1,,,,,,,,,,,,,,,,,,,,,,,,,,,,,,,,,,,,,,,,,
960382,001,2022-11-20_17h55.32.249,Info_measure_main_exp,2022.2.2,Win32,47.65308554,,,,,,,,,,,,,,,,,,masks/mask_001.jpg,,,,,,,,,,,,,,,,,,,,,,,,,,,,,,,,,,,,,,,,,,,,,,,,0,4,4,0,1,,,,,,,,,,,,,,,,,,,,,,,,,,,,,,,,,,,,,,,,,
960382,001,2022-11-20_17h55.32.249,Info_measure_main_exp,2022.2.2,Win32,47.65308554,,,,,,,,,,,,,,,,,,,,,,,,,,,,,,0,2.9386,1,,,,,,,,,,,,0,131,5,5,2298,2298,absent_patch/patch0002298.jpg,absent_patch/patch0002298.jpg,,,,,,,,,,,,,,,,,,,,-0.05477452,0.124933663,1,0,0,response7disk,7,-0.00596817,0.002917748,1,0,0,center_square,0,6,6,37,1,,,,,,,,,,,,,,,,,,,,,,,
960382,001,2022-11-20_17h55.32.249,Info_measure_main_exp,2022.2.2,Win32,47.65308554,,,,,,,,,,,,,,,,,,masks/mask_002.jpg,,,,,,,,,,,,,,,,,,,,,,,,,,,,,,,,,,,,,,,,,,,0,0,0,1,1,,,,,,,,,,,,,,,,,,,,,,,,,,,,,,,,,,,,,,,,,,,,,,
960382,001,2022-11-20_17h55.32.249,Info_measure_main_exp,2022.2.2,Win32,47.65308554,,,,,,,,,,,,,,,,,,masks/mask_003.jpg,,,,,,,,,,,,,,,,,,,,,,,,,,,,,,,,,,,,,,,,,,,0,1,1,2,1,,,,,,,,,,,,,,,,,,,,,,,,,,,,,,,,,,,,,,,,,,,,,,
960382,001,2022-11-20_17h55.32.249,Info_measure_main_exp,2022.2.2,Win32,47.65308554,,,,,,,,,,,,,,,,,,masks/mask_005.jpg,,,,,,,,,,,,,,,,,,,,,,,,,,,,,,,,,,,,,,,,,,,0,2,2,4,1,,,,,,,,,,,,,,,,,,,,,,,,,,,,,,,,,,,,,,,,,,,,,,
960382,001,2022-11-20_17h55.32.249,Info_measure_main_exp,2022.2.2,Win32,47.65308554,,,,,,,,,,,,,,,,,,masks/mask_004.jpg,,,,,,,,,,,,,,,,,,,,,,,,,,,,,,,,,,,,,,,,,,,0,3,3,3,1,,,,,,,,,,,,,,,,,,,,,,,,,,,,,,,,,,,,,,,,,,,,,,
960382,001,2022-11-20_17h55.32.249,Info_measure_main_exp,2022.2.2,Win32,47.65308554,,,,,,,,,,,,,,,,,,masks/mask_001.jpg,,,,,,,,,,,,,,,,,,,,,,,,,,,,,,,,,,,,,,,,,,,0,4,4,0,1,,,,,,,,,,,,,,,,,,,,,,,,,,,,,,,,,,,,,,,,,,,,,,
960382,001,2022-11-20_17h55.32.249,Info_measure_main_exp,2022.2.2,Win32,47.65308554,,,,,,,,,,,,,,,,,,masks/mask_001.jpg,,,,,,,,,,,,,,,,,,,,,,,,,,,,,,,,,,,,,,,,,,,,,,,,0,0,0,0,1,,,,,,,,,,,,,,,,,,,,,,,,,,,,,,,,,,,,,,,,,
960382,001,2022-11-20_17h55.32.249,Info_measure_main_exp,2022.2.2,Win32,47.65308554,,,,,,,,,,,,,,,,,,masks/mask_003.jpg,,,,,,,,,,,,,,,,,,,,,,,,,,,,,,,,,,,,,,,,,,,,,,,,0,1,1,2,1,,,,,,,,,,,,,,,,,,,,,,,,,,,,,,,,,,,,,,,,,
960382,001,2022-11-20_17h55.32.249,Info_measure_main_exp,2022.2.2,Win32,47.65308554,,,,,,,,,,,,,,,,,,masks/mask_004.jpg,,,,,,,,,,,,,,,,,,,,,,,,,,,,,,,,,,,,,,,,,,,,,,,,0,2,2,3,1,,,,,,,,,,,,,,,,,,,,,,,,,,,,,,,,,,,,,,,,,
960382,001,2022-11-20_17h55.32.249,Info_measure_main_exp,2022.2.2,Win32,47.65308554,,,,,,,,,,,,,,,,,,masks/mask_002.jpg,,,,,,,,,,,,,,,,,,,,,,,,,,,,,,,,,,,,,,,,,,,,,,,,0,3,3,1,1,,,,,,,,,,,,,,,,,,,,,,,,,,,,,,,,,,,,,,,,,
960382,001,2022-11-20_17h55.32.249,Info_measure_main_exp,2022.2.2,Win32,47.65308554,,,,,,,,,,,,,,,,,,masks/mask_005.jpg,,,,,,,,,,,,,,,,,,,,,,,,,,,,,,,,,,,,,,,,,,,,,,,,0,4,4,4,1,,,,,,,,,,,,,,,,,,,,,,,,,,,,,,,,,,,,,,,,,
960382,001,2022-11-20_17h55.32.249,Info_measure_main_exp,2022.2.2,Win32,47.65308554,,,,,,,,,,,,,,,,,,,,,,,,,,,,,,6,2.3529,1,,,,,,,,,,,,0,131,5,5,2142,2238,absent_patch/patch0002142.jpg,absent_patch/patch0002238.jpg,,,,,,,,,,,,,,,,,,,,0.218965566,0.067639257,1,0,0,response1disk,8,0.000397862,-0.003448284,1,0,0,center_square,0,7,7,101,1,,,,,,,,,,,,,,,,,,,,,,,
960382,001,2022-11-20_17h55.32.249,Info_measure_main_exp,2022.2.2,Win32,47.65308554,,,,,,,,,,,,,,,,,,masks/mask_005.jpg,,,,,,,,,,,,,,,,,,,,,,,,,,,,,,,,,,,,,,,,,,,0,0,0,4,1,,,,,,,,,,,,,,,,,,,,,,,,,,,,,,,,,,,,,,,,,,,,,,
960382,001,2022-11-20_17h55.32.249,Info_measure_main_exp,2022.2.2,Win32,47.65308554,,,,,,,,,,,,,,,,,,masks/mask_001.jpg,,,,,,,,,,,,,,,,,,,,,,,,,,,,,,,,,,,,,,,,,,,0,1,1,0,1,,,,,,,,,,,,,,,,,,,,,,,,,,,,,,,,,,,,,,,,,,,,,,
960382,001,2022-11-20_17h55.32.249,Info_measure_main_exp,2022.2.2,Win32,47.65308554,,,,,,,,,,,,,,,,,,masks/mask_003.jpg,,,,,,,,,,,,,,,,,,,,,,,,,,,,,,,,,,,,,,,,,,,0,2,2,2,1,,,,,,,,,,,,,,,,,,,,,,,,,,,,,,,,,,,,,,,,,,,,,,
960382,001,2022-11-20_17h55.32.249,Info_measure_main_exp,2022.2.2,Win32,47.65308554,,,,,,,,,,,,,,,,,,masks/mask_002.jpg,,,,,,,,,,,,,,,,,,,,,,,,,,,,,,,,,,,,,,,,,,,0,3,3,1,1,,,,,,,,,,,,,,,,,,,,,,,,,,,,,,,,,,,,,,,,,,,,,,
960382,001,2022-11-20_17h55.32.249,Info_measure_main_exp,2022.2.2,Win32,47.65308554,,,,,,,,,,,,,,,,,,masks/mask_004.jpg,,,,,,,,,,,,,,,,,,,,,,,,,,,,,,,,,,,,,,,,,,,0,4,4,3,1,,,,,,,,,,,,,,,,,,,,,,,,,,,,,,,,,,,,,,,,,,,,,,
960382,001,2022-11-20_17h55.32.249,Info_measure_main_exp,2022.2.2,Win32,47.65308554,,,,,,,,,,,,,,,,,,masks/mask_005.jpg,,,,,,,,,,,,,,,,,,,,,,,,,,,,,,,,,,,,,,,,,,,,,,,,0,0,0,4,1,,,,,,,,,,,,,,,,,,,,,,,,,,,,,,,,,,,,,,,,,
960382,001,2022-11-20_17h55.32.249,Info_measure_main_exp,2022.2.2,Win32,47.65308554,,,,,,,,,,,,,,,,,,masks/mask_004.jpg,,,,,,,,,,,,,,,,,,,,,,,,,,,,,,,,,,,,,,,,,,,,,,,,0,1,1,3,1,,,,,,,,,,,,,,,,,,,,,,,,,,,,,,,,,,,,,,,,,
960382,001,2022-11-20_17h55.32.249,Info_measure_main_exp,2022.2.2,Win32,47.65308554,,,,,,,,,,,,,,,,,,masks/mask_003.jpg,,,,,,,,,,,,,,,,,,,,,,,,,,,,,,,,,,,,,,,,,,,,,,,,0,2,2,2,1,,,,,,,,,,,,,,,,,,,,,,,,,,,,,,,,,,,,,,,,,
960382,001,2022-11-20_17h55.32.249,Info_measure_main_exp,2022.2.2,Win32,47.65308554,,,,,,,,,,,,,,,,,,masks/mask_001.jpg,,,,,,,,,,,,,,,,,,,,,,,,,,,,,,,,,,,,,,,,,,,,,,,,0,3,3,0,1,,,,,,,,,,,,,,,,,,,,,,,,,,,,,,,,,,,,,,,,,
960382,001,2022-11-20_17h55.32.249,Info_measure_main_exp,2022.2.2,Win32,47.65308554,,,,,,,,,,,,,,,,,,masks/mask_002.jpg,,,,,,,,,,,,,,,,,,,,,,,,,,,,,,,,,,,,,,,,,,,,,,,,0,4,4,1,1,,,,,,,,,,,,,,,,,,,,,,,,,,,,,,,,,,,,,,,,,
960382,001,2022-11-20_17h55.32.249,Info_measure_main_exp,2022.2.2,Win32,47.65308554,,,,,,,,,,,,,,,,,,,,,,,,,,,,,,6,1.292,1,,,,,,,,,,,,0,131,5,5,2178,2154,absent_patch/patch0002178.jpg,absent_patch/patch0002154.jpg,,,,,,,,,,,,,,,,,,,,0.182891279,0.055968145,1,0,0,response1disk,9,-0.008090153,-0.0066313,1,0,0,center_square,0,8,8,63,1,,,,,,,,,,,,,,,,,,,,,,,
960382,001,2022-11-20_17h55.32.249,Info_measure_main_exp,2022.2.2,Win32,47.65308554,,,,,,,,,,,,,,,,,,masks/mask_002.jpg,,,,,,,,,,,,,,,,,,,,,,,,,,,,,,,,,,,,,,,,,,,0,0,0,1,1,,,,,,,,,,,,,,,,,,,,,,,,,,,,,,,,,,,,,,,,,,,,,,
960382,001,2022-11-20_17h55.32.249,Info_measure_main_exp,2022.2.2,Win32,47.65308554,,,,,,,,,,,,,,,,,,masks/mask_005.jpg,,,,,,,,,,,,,,,,,,,,,,,,,,,,,,,,,,,,,,,,,,,0,1,1,4,1,,,,,,,,,,,,,,,,,,,,,,,,,,,,,,,,,,,,,,,,,,,,,,
960382,001,2022-11-20_17h55.32.249,Info_measure_main_exp,2022.2.2,Win32,47.65308554,,,,,,,,,,,,,,,,,,masks/mask_004.jpg,,,,,,,,,,,,,,,,,,,,,,,,,,,,,,,,,,,,,,,,,,,0,2,2,3,1,,,,,,,,,,,,,,,,,,,,,,,,,,,,,,,,,,,,,,,,,,,,,,
960382,001,2022-11-20_17h55.32.249,Info_measure_main_exp,2022.2.2,Win32,47.65308554,,,,,,,,,,,,,,,,,,masks/mask_003.jpg,,,,,,,,,,,,,,,,,,,,,,,,,,,,,,,,,,,,,,,,,,,0,3,3,2,1,,,,,,,,,,,,,,,,,,,,,,,,,,,,,,,,,,,,,,,,,,,,,,
960382,001,2022-11-20_17h55.32.249,Info_measure_main_exp,2022.2.2,Win32,47.65308554,,,,,,,,,,,,,,,,,,masks/mask_001.jpg,,,,,,,,,,,,,,,,,,,,,,,,,,,,,,,,,,,,,,,,,,,0,4,4,0,1,,,,,,,,,,,,,,,,,,,,,,,,,,,,,,,,,,,,,,,,,,,,,,
960382,001,2022-11-20_17h55.32.249,Info_measure_main_exp,2022.2.2,Win32,47.65308554,,,,,,,,,,,,,,,,,,masks/mask_002.jpg,,,,,,,,,,,,,,,,,,,,,,,,,,,,,,,,,,,,,,,,,,,,,,,,0,0,0,1,1,,,,,,,,,,,,,,,,,,,,,,,,,,,,,,,,,,,,,,,,,
960382,001,2022-11-20_17h55.32.249,Info_measure_main_exp,2022.2.2,Win32,47.65308554,,,,,,,,,,,,,,,,,,masks/mask_004.jpg,,,,,,,,,,,,,,,,,,,,,,,,,,,,,,,,,,,,,,,,,,,,,,,,0,1,1,3,1,,,,,,,,,,,,,,,,,,,,,,,,,,,,,,,,,,,,,,,,,
960382,001,2022-11-20_17h55.32.249,Info_measure_main_exp,2022.2.2,Win32,47.65308554,,,,,,,,,,,,,,,,,,masks/mask_001.jpg,,,,,,,,,,,,,,,,,,,,,,,,,,,,,,,,,,,,,,,,,,,,,,,,0,2,2,0,1,,,,,,,,,,,,,,,,,,,,,,,,,,,,,,,,,,,,,,,,,
960382,001,2022-11-20_17h55.32.249,Info_measure_main_exp,2022.2.2,Win32,47.65308554,,,,,,,,,,,,,,,,,,masks/mask_005.jpg,,,,,,,,,,,,,,,,,,,,,,,,,,,,,,,,,,,,,,,,,,,,,,,,0,3,3,4,1,,,,,,,,,,,,,,,,,,,,,,,,,,,,,,,,,,,,,,,,,
960382,001,2022-11-20_17h55.32.249,Info_measure_main_exp,2022.2.2,Win32,47.65308554,,,,,,,,,,,,,,,,,,masks/mask_003.jpg,,,,,,,,,,,,,,,,,,,,,,,,,,,,,,,,,,,,,,,,,,,,,,,,0,4,4,2,1,,,,,,,,,,,,,,,,,,,,,,,,,,,,,,,,,,,,,,,,,
960382,001,2022-11-20_17h55.32.249,Info_measure_main_exp,2022.2.2,Win32,47.65308554,,,,,,,,,,,,,,,,,,,,,,,,,,,,,,7,1.3533,1,,,,,,,,,,,,1,131,5,5,1,2166,present_patch/cong_131_5_a.jpg,absent_patch/patch0002166.jpg,,,,,,,,,,,,,,,,,,,,0.054509332,0.122811679,1,0,0,response1disk,10,0.007824966,-0.003448284,1,0,0,center_square,0,9,9,54,1,,,,,,,,,,,,,,,,,,,,,,,
960382,001,2022-11-20_17h55.32.249,Info_measure_main_exp,2022.2.2,Win32,47.65308554,,,,,,,,,,,,,,,,,,masks/mask_005.jpg,,,,,,,,,,,,,,,,,,,,,,,,,,,,,,,,,,,,,,,,,,,0,0,0,4,1,,,,,,,,,,,,,,,,,,,,,,,,,,,,,,,,,,,,,,,,,,,,,,
960382,001,2022-11-20_17h55.32.249,Info_measure_main_exp,2022.2.2,Win32,47.65308554,,,,,,,,,,,,,,,,,,masks/mask_001.jpg,,,,,,,,,,,,,,,,,,,,,,,,,,,,,,,,,,,,,,,,,,,0,1,1,0,1,,,,,,,,,,,,,,,,,,,,,,,,,,,,,,,,,,,,,,,,,,,,,,
960382,001,2022-11-20_17h55.32.249,Info_measure_main_exp,2022.2.2,Win32,47.65308554,,,,,,,,,,,,,,,,,,masks/mask_003.jpg,,,,,,,,,,,,,,,,,,,,,,,,,,,,,,,,,,,,,,,,,,,0,2,2,2,1,,,,,,,,,,,,,,,,,,,,,,,,,,,,,,,,,,,,,,,,,,,,,,
960382,001,2022-11-20_17h55.32.249,Info_measure_main_exp,2022.2.2,Win32,47.65308554,,,,,,,,,,,,,,,,,,masks/mask_002.jpg,,,,,,,,,,,,,,,,,,,,,,,,,,,,,,,,,,,,,,,,,,,0,3,3,1,1,,,,,,,,,,,,,,,,,,,,,,,,,,,,,,,,,,,,,,,,,,,,,,
960382,001,2022-11-20_17h55.32.249,Info_measure_main_exp,2022.2.2,Win32,47.65308554,,,,,,,,,,,,,,,,,,masks/mask_004.jpg,,,,,,,,,,,,,,,,,,,,,,,,,,,,,,,,,,,,,,,,,,,0,4,4,3,1,,,,,,,,,,,,,,,,,,,,,,,,,,,,,,,,,,,,,,,,,,,,,,
960382,001,2022-11-20_17h55.32.249,Info_measure_main_exp,2022.2.2,Win32,47.65308554,,,,,,,,,,,,,,,,,,masks/mask_003.jpg,,,,,,,,,,,,,,,,,,,,,,,,,,,,,,,,,,,,,,,,,,,,,,,,0,0,0,2,1,,,,,,,,,,,,,,,,,,,,,,,,,,,,,,,,,,,,,,,,,
960382,001,2022-11-20_17h55.32.249,Info_measure_main_exp,2022.2.2,Win32,47.65308554,,,,,,,,,,,,,,,,,,masks/mask_005.jpg,,,,,,,,,,,,,,,,,,,,,,,,,,,,,,,,,,,,,,,,,,,,,,,,0,1,1,4,1,,,,,,,,,,,,,,,,,,,,,,,,,,,,,,,,,,,,,,,,,
960382,001,2022-11-20_17h55.32.249,Info_measure_main_exp,2022.2.2,Win32,47.65308554,,,,,,,,,,,,,,,,,,masks/mask_001.jpg,,,,,,,,,,,,,,,,,,,,,,,,,,,,,,,,,,,,,,,,,,,,,,,,0,2,2,0,1,,,,,,,,,,,,,,,,,,,,,,,,,,,,,,,,,,,,,,,,,
960382,001,2022-11-20_17h55.32.249,Info_measure_main_exp,2022.2.2,Win32,47.65308554,,,,,,,,,,,,,,,,,,masks/mask_004.jpg,,,,,,,,,,,,,,,,,,,,,,,,,,,,,,,,,,,,,,,,,,,,,,,,0,3,3,3,1,,,,,,,,,,,,,,,,,,,,,,,,,,,,,,,,,,,,,,,,,
960382,001,2022-11-20_17h55.32.249,Info_measure_main_exp,2022.2.2,Win32,47.65308554,,,,,,,,,,,,,,,,,,masks/mask_002.jpg,,,,,,,,,,,,,,,,,,,,,,,,,,,,,,,,,,,,,,,,,,,,,,,,0,4,4,1,1,,,,,,,,,,,,,,,,,,,,,,,,,,,,,,,,,,,,,,,,,
960382,001,2022-11-20_17h55.32.249,Info_measure_main_exp,2022.2.2,Win32,47.65308554,,,,,,,,,,,,,,,,,,,,,,,,,,,,,,7,0.8442,1,,,,,,,,,,,,1,131,5,5,2250,1,absent_patch/patch0002250.jpg,present_patch/cong_131_5_a.jpg,,,,,,,,,,,,,,,,,,,,0.055570324,0.121750647,1,0,0,response1disk,11,0.000397862,-0.005570308,1,0,0,center_square,0,10,10,5,1,,,,,,,,,,,,,,,,,,,,,,,
960382,001,2022-11-20_17h55.32.249,Info_measure_main_exp,2022.2.2,Win32,47.65308554,,,,,,,,,,,,,,,,,,masks/mask_002.jpg,,,,,,,,,,,,,,,,,,,,,,,,,,,,,,,,,,,,,,,,,,,0,0,0,1,1,,,,,,,,,,,,,,,,,,,,,,,,,,,,,,,,,,,,,,,,,,,,,,
960382,001,2022-11-20_17h55.32.249,Info_measure_main_exp,2022.2.2,Win32,47.65308554,,,,,,,,,,,,,,,,,,masks/mask_003.jpg,,,,,,,,,,,,,,,,,,,,,,,,,,,,,,,,,,,,,,,,,,,0,1,1,2,1,,,,,,,,,,,,,,,,,,,,,,,,,,,,,,,,,,,,,,,,,,,,,,
960382,001,2022-11-20_17h55.32.249,Info_measure_main_exp,2022.2.2,Win32,47.65308554,,,,,,,,,,,,,,,,,,masks/mask_005.jpg,,,,,,,,,,,,,,,,,,,,,,,,,,,,,,,,,,,,,,,,,,,0,2,2,4,1,,,,,,,,,,,,,,,,,,,,,,,,,,,,,,,,,,,,,,,,,,,,,,
960382,001,2022-11-20_17h55.32.249,Info_measure_main_exp,2022.2.2,Win32,47.65308554,,,,,,,,,,,,,,,,,,masks/mask_004.jpg,,,,,,,,,,,,,,,,,,,,,,,,,,,,,,,,,,,,,,,,,,,0,3,3,3,1,,,,,,,,,,,,,,,,,,,,,,,,,,,,,,,,,,,,,,,,,,,,,,
960382,001,2022-11-20_17h55.32.249,Info_measure_main_exp,2022.2.2,Win32,47.65308554,,,,,,,,,,,,,,,,,,masks/mask_001.jpg,,,,,,,,,,,,,,,,,,,,,,,,,,,,,,,,,,,,,,,,,,,0,4,4,0,1,,,,,,,,,,,,,,,,,,,,,,,,,,,,,,,,,,,,,,,,,,,,,,
960382,001,2022-11-20_17h55.32.249,Info_measure_main_exp,2022.2.2,Win32,47.65308554,,,,,,,,,,,,,,,,,,masks/mask_002.jpg,,,,,,,,,,,,,,,,,,,,,,,,,,,,,,,,,,,,,,,,,,,,,,,,0,0,0,1,1,,,,,,,,,,,,,,,,,,,,,,,,,,,,,,,,,,,,,,,,,
960382,001,2022-11-20_17h55.32.249,Info_measure_main_exp,2022.2.2,Win32,47.65308554,,,,,,,,,,,,,,,,,,masks/mask_001.jpg,,,,,,,,,,,,,,,,,,,,,,,,,,,,,,,,,,,,,,,,,,,,,,,,0,1,1,0,1,,,,,,,,,,,,,,,,,,,,,,,,,,,,,,,,,,,,,,,,,
960382,001,2022-11-20_17h55.32.249,Info_measure_main_exp,2022.2.2,Win32,47.65308554,,,,,,,,,,,,,,,,,,masks/mask_005.jpg,,,,,,,,,,,,,,,,,,,,,,,,,,,,,,,,,,,,,,,,,,,,,,,,0,2,2,4,1,,,,,,,,,,,,,,,,,,,,,,,,,,,,,,,,,,,,,,,,,
960382,001,2022-11-20_17h55.32.249,Info_measure_main_exp,2022.2.2,Win32,47.65308554,,,,,,,,,,,,,,,,,,masks/mask_004.jpg,,,,,,,,,,,,,,,,,,,,,,,,,,,,,,,,,,,,,,,,,,,,,,,,0,3,3,3,1,,,,,,,,,,,,,,,,,,,,,,,,,,,,,,,,,,,,,,,,,
960382,001,2022-11-20_17h55.32.249,Info_measure_main_exp,2022.2.2,Win32,47.65308554,,,,,,,,,,,,,,,,,,masks/mask_003.jpg,,,,,,,,,,,,,,,,,,,,,,,,,,,,,,,,,,,,,,,,,,,,,,,,0,4,4,2,1,,,,,,,,,,,,,,,,,,,,,,,,,,,,,,,,,,,,,,,,,
960382,001,2022-11-20_17h55.32.249,Info_measure_main_exp,2022.2.2,Win32,47.65308554,,,,,,,,,,,,,,,,,,,,,,,,,,,,,,4,2.18,1,,,,,,,,,,,,0,131,5,5,2274,2214,absent_patch/patch0002274.jpg,absent_patch/patch0002214.jpg,,,,,,,,,,,,,,,,,,,,0.015251989,-0.073474793,1,0,0,response3disk,12,-0.00066313,-0.002387292,1,0,0,center_square,0,11,11,11,1,,,,,,,,,,,,,,,,,,,,,,,
960382,001,2022-11-20_17h55.32.249,Info_measure_main_exp,2022.2.2,Win32,47.65308554,,,,,,,,,,,,,,,,,,masks/mask_005.jpg,,,,,,,,,,,,,,,,,,,,,,,,,,,,,,,,,,,,,,,,,,,0,0,0,4,1,,,,,,,,,,,,,,,,,,,,,,,,,,,,,,,,,,,,,,,,,,,,,,
960382,001,2022-11-20_17h55.32.249,Info_measure_main_exp,2022.2.2,Win32,47.65308554,,,,,,,,,,,,,,,,,,masks/mask_001.jpg,,,,,,,,,,,,,,,,,,,,,,,,,,,,,,,,,,,,,,,,,,,0,1,1,0,1,,,,,,,,,,,,,,,,,,,,,,,,,,,,,,,,,,,,,,,,,,,,,,
960382,001,2022-11-20_17h55.32.249,Info_measure_main_exp,2022.2.2,Win32,47.65308554,,,,,,,,,,,,,,,,,,masks/mask_004.jpg,,,,,,,,,,,,,,,,,,,,,,,,,,,,,,,,,,,,,,,,,,,0,2,2,3,1,,,,,,,,,,,,,,,,,,,,,,,,,,,,,,,,,,,,,,,,,,,,,,
960382,001,2022-11-20_17h55.32.249,Info_measure_main_exp,2022.2.2,Win32,47.65308554,,,,,,,,,,,,,,,,,,masks/mask_003.jpg,,,,,,,,,,,,,,,,,,,,,,,,,,,,,,,,,,,,,,,,,,,0,3,3,2,1,,,,,,,,,,,,,,,,,,,,,,,,,,,,,,,,,,,,,,,,,,,,,,
960382,001,2022-11-20_17h55.32.249,Info_measure_main_exp,2022.2.2,Win32,47.65308554,,,,,,,,,,,,,,,,,,masks/mask_002.jpg,,,,,,,,,,,,,,,,,,,,,,,,,,,,,,,,,,,,,,,,,,,0,4,4,1,1,,,,,,,,,,,,,,,,,,,,,,,,,,,,,,,,,,,,,,,,,,,,,,
960382,001,2022-11-20_17h55.32.249,Info_measure_main_exp,2022.2.2,Win32,47.65308554,,,,,,,,,,,,,,,,,,masks/mask_003.jpg,,,,,,,,,,,,,,,,,,,,,,,,,,,,,,,,,,,,,,,,,,,,,,,,0,0,0,2,1,,,,,,,,,,,,,,,,,,,,,,,,,,,,,,,,,,,,,,,,,
960382,001,2022-11-20_17h55.32.249,Info_measure_main_exp,2022.2.2,Win32,47.65308554,,,,,,,,,,,,,,,,,,masks/mask_004.jpg,,,,,,,,,,,,,,,,,,,,,,,,,,,,,,,,,,,,,,,,,,,,,,,,0,1,1,3,1,,,,,,,,,,,,,,,,,,,,,,,,,,,,,,,,,,,,,,,,,
960382,001,2022-11-20_17h55.32.249,Info_measure_main_exp,2022.2.2,Win32,47.65308554,,,,,,,,,,,,,,,,,,masks/mask_001.jpg,,,,,,,,,,,,,,,,,,,,,,,,,,,,,,,,,,,,,,,,,,,,,,,,0,2,2,0,1,,,,,,,,,,,,,,,,,,,,,,,,,,,,,,,,,,,,,,,,,
960382,001,2022-11-20_17h55.32.249,Info_measure_main_exp,2022.2.2,Win32,47.65308554,,,,,,,,,,,,,,,,,,masks/mask_002.jpg,,,,,,,,,,,,,,,,,,,,,,,,,,,,,,,,,,,,,,,,,,,,,,,,0,3,3,1,1,,,,,,,,,,,,,,,,,,,,,,,,,,,,,,,,,,,,,,,,,
960382,001,2022-11-20_17h55.32.249,Info_measure_main_exp,2022.2.2,Win32,47.65308554,,,,,,,,,,,,,,,,,,masks/mask_005.jpg,,,,,,,,,,,,,,,,,,,,,,,,,,,,,,,,,,,,,,,,,,,,,,,,0,4,4,4,1,,,,,,,,,,,,,,,,,,,,,,,,,,,,,,,,,,,,,,,,,
960382,001,2022-11-20_17h55.32.249,Info_measure_main_exp,2022.2.2,Win32,47.65308554,,,,,,,,,,,,,,,,,,,,,,,,,,,,,,3,1.3959,1,,,,,,,,,,,,0,131,5,5,2214,2142,absent_patch/patch0002214.jpg,absent_patch/patch0002142.jpg,,,,,,,,,,,,,,,,,,,,-0.031432377,-0.056498682,1,0,0,response5disk,13,-0.001724122,-0.0066313,1,0,0,center_square,0,12,12,102,1,,,,,,,,,,,,,,,,,,,,,,,
960382,001,2022-11-20_17h55.32.249,Info_measure_main_exp,2022.2.2,Win32,47.65308554,,,,,,,,,,,,,,,,,,masks/mask_004.jpg,,,,,,,,,,,,,,,,,,,,,,,,,,,,,,,,,,,,,,,,,,,0,0,0,3,1,,,,,,,,,,,,,,,,,,,,,,,,,,,,,,,,,,,,,,,,,,,,,,
960382,001,2022-11-20_17h55.32.249,Info_measure_main_exp,2022.2.2,Win32,47.65308554,,,,,,,,,,,,,,,,,,masks/mask_003.jpg,,,,,,,,,,,,,,,,,,,,,,,,,,,,,,,,,,,,,,,,,,,0,1,1,2,1,,,,,,,,,,,,,,,,,,,,,,,,,,,,,,,,,,,,,,,,,,,,,,
960382,001,2022-11-20_17h55.32.249,Info_measure_main_exp,2022.2.2,Win32,47.65308554,,,,,,,,,,,,,,,,,,masks/mask_001.jpg,,,,,,,,,,,,,,,,,,,,,,,,,,,,,,,,,,,,,,,,,,,0,2,2,0,1,,,,,,,,,,,,,,,,,,,,,,,,,,,,,,,,,,,,,,,,,,,,,,
960382,001,2022-11-20_17h55.32.249,Info_measure_main_exp,2022.2.2,Win32,47.65308554,,,,,,,,,,,,,,,,,,masks/mask_002.jpg,,,,,,,,,,,,,,,,,,,,,,,,,,,,,,,,,,,,,,,,,,,0,3,3,1,1,,,,,,,,,,,,,,,,,,,,,,,,,,,,,,,,,,,,,,,,,,,,,,
960382,001,2022-11-20_17h55.32.249,Info_measure_main_exp,2022.2.2,Win32,47.65308554,,,,,,,,,,,,,,,,,,masks/mask_005.jpg,,,,,,,,,,,,,,,,,,,,,,,,,,,,,,,,,,,,,,,,,,,0,4,4,4,1,,,,,,,,,,,,,,,,,,,,,,,,,,,,,,,,,,,,,,,,,,,,,,
960382,001,2022-11-20_17h55.32.249,Info_measure_main_exp,2022.2.2,Win32,47.65308554,,,,,,,,,,,,,,,,,,masks/mask_003.jpg,,,,,,,,,,,,,,,,,,,,,,,,,,,,,,,,,,,,,,,,,,,,,,,,0,0,0,2,1,,,,,,,,,,,,,,,,,,,,,,,,,,,,,,,,,,,,,,,,,
960382,001,2022-11-20_17h55.32.249,Info_measure_main_exp,2022.2.2,Win32,47.65308554,,,,,,,,,,,,,,,,,,masks/mask_005.jpg,,,,,,,,,,,,,,,,,,,,,,,,,,,,,,,,,,,,,,,,,,,,,,,,0,1,1,4,1,,,,,,,,,,,,,,,,,,,,,,,,,,,,,,,,,,,,,,,,,
960382,001,2022-11-20_17h55.32.249,Info_measure_main_exp,2022.2.2,Win32,47.65308554,,,,,,,,,,,,,,,,,,masks/mask_002.jpg,,,,,,,,,,,,,,,,,,,,,,,,,,,,,,,,,,,,,,,,,,,,,,,,0,2,2,1,1,,,,,,,,,,,,,,,,,,,,,,,,,,,,,,,,,,,,,,,,,
960382,001,2022-11-20_17h55.32.249,Info_measure_main_exp,2022.2.2,Win32,47.65308554,,,,,,,,,,,,,,,,,,masks/mask_004.jpg,,,,,,,,,,,,,,,,,,,,,,,,,,,,,,,,,,,,,,,,,,,,,,,,0,3,3,3,1,,,,,,,,,,,,,,,,,,,,,,,,,,,,,,,,,,,,,,,,,
960382,001,2022-11-20_17h55.32.249,Info_measure_main_exp,2022.2.2,Win32,47.65308554,,,,,,,,,,,,,,,,,,masks/mask_001.jpg,,,,,,,,,,,,,,,,,,,,,,,,,,,,,,,,,,,,,,,,,,,,,,,,0,4,4,0,1,,,,,,,,,,,,,,,,,,,,,,,,,,,,,,,,,,,,,,,,,
960382,001,2022-11-20_17h55.32.249,Info_measure_main_exp,2022.2.2,Win32,47.65308554,,,,,,,,,,,,,,,,,,,,,,,,,,,,,,4,2.3109,1,,,,,,,,,,,,0,131,5,5,2250,2298,absent_patch/patch0002250.jpg,absent_patch/patch0002298.jpg,,,,,,,,,,,,,,,,,,,,0.054509332,-0.075596817,1,0,0,response3disk,14,0.001458935,-0.005570308,1,0,0,center_square,0,13,13,59,1,,,,,,,,,,,,,,,,,,,,,,,
960382,001,2022-11-20_17h55.32.249,Info_measure_main_exp,2022.2.2,Win32,47.65308554,,,,,,,,,,,,,,,,,,masks/mask_005.jpg,,,,,,,,,,,,,,,,,,,,,,,,,,,,,,,,,,,,,,,,,,,0,0,0,4,1,,,,,,,,,,,,,,,,,,,,,,,,,,,,,,,,,,,,,,,,,,,,,,
960382,001,2022-11-20_17h55.32.249,Info_measure_main_exp,2022.2.2,Win32,47.65308554,,,,,,,,,,,,,,,,,,masks/mask_001.jpg,,,,,,,,,,,,,,,,,,,,,,,,,,,,,,,,,,,,,,,,,,,0,1,1,0,1,,,,,,,,,,,,,,,,,,,,,,,,,,,,,,,,,,,,,,,,,,,,,,
960382,001,2022-11-20_17h55.32.249,Info_measure_main_exp,2022.2.2,Win32,47.65308554,,,,,,,,,,,,,,,,,,masks/mask_004.jpg,,,,,,,,,,,,,,,,,,,,,,,,,,,,,,,,,,,,,,,,,,,0,2,2,3,1,,,,,,,,,,,,,,,,,,,,,,,,,,,,,,,,,,,,,,,,,,,,,,
960382,001,2022-11-20_17h55.32.249,Info_measure_main_exp,2022.2.2,Win32,47.65308554,,,,,,,,,,,,,,,,,,masks/mask_003.jpg,,,,,,,,,,,,,,,,,,,,,,,,,,,,,,,,,,,,,,,,,,,0,3,3,2,1,,,,,,,,,,,,,,,,,,,,,,,,,,,,,,,,,,,,,,,,,,,,,,
960382,001,2022-11-20_17h55.32.249,Info_measure_main_exp,2022.2.2,Win32,47.65308554,,,,,,,,,,,,,,,,,,masks/mask_002.jpg,,,,,,,,,,,,,,,,,,,,,,,,,,,,,,,,,,,,,,,,,,,0,4,4,1,1,,,,,,,,,,,,,,,,,,,,,,,,,,,,,,,,,,,,,,,,,,,,,,
960382,001,2022-11-20_17h55.32.249,Info_measure_main_exp,2022.2.2,Win32,47.65308554,,,,,,,,,,,,,,,,,,masks/mask_005.jpg,,,,,,,,,,,,,,,,,,,,,,,,,,,,,,,,,,,,,,,,,,,,,,,,0,0,0,4,1,,,,,,,,,,,,,,,,,,,,,,,,,,,,,,,,,,,,,,,,,
960382,001,2022-11-20_17h55.32.249,Info_measure_main_exp,2022.2.2,Win32,47.65308554,,,,,,,,,,,,,,,,,,masks/mask_002.jpg,,,,,,,,,,,,,,,,,,,,,,,,,,,,,,,,,,,,,,,,,,,,,,,,0,1,1,1,1,,,,,,,,,,,,,,,,,,,,,,,,,,,,,,,,,,,,,,,,,
960382,001,2022-11-20_17h55.32.249,Info_measure_main_exp,2022.2.2,Win32,47.65308554,,,,,,,,,,,,,,,,,,masks/mask_003.jpg,,,,,,,,,,,,,,,,,,,,,,,,,,,,,,,,,,,,,,,,,,,,,,,,0,2,2,2,1,,,,,,,,,,,,,,,,,,,,,,,,,,,,,,,,,,,,,,,,,
960382,001,2022-11-20_17h55.32.249,Info_measure_main_exp,2022.2.2,Win32,47.65308554,,,,,,,,,,,,,,,,,,masks/mask_001.jpg,,,,,,,,,,,,,,,,,,,,,,,,,,,,,,,,,,,,,,,,,,,,,,,,0,3,3,0,1,,,,,,,,,,,,,,,,,,,,,,,,,,,,,,,,,,,,,,,,,
960382,001,2022-11-20_17h55.32.249,Info_measure_main_exp,2022.2.2,Win32,47.65308554,,,,,,,,,,,,,,,,,,masks/mask_004.jpg,,,,,,,,,,,,,,,,,,,,,,,,,,,,,,,,,,,,,,,,,,,,,,,,0,4,4,3,1,,,,,,,,,,,,,,,,,,,,,,,,,,,,,,,,,,,,,,,,,
960382,001,2022-11-20_17h55.32.249,Info_measure_main_exp,2022.2.2,Win32,47.65308554,,,,,,,,,,,,,,,,,,,,,,,,,,,,,,4,2.4307,1,,,,,,,,,,,,0,131,5,5,2154,1950,absent_patch/patch0002154.jpg,absent_patch/patch0001950.jpg,,,,,,,,,,,,,,,,,,,,0.014190998,-0.031034475,1,0,0,response3disk,15,-0.001724122,0.008222787,1,0,0,center_square,0,14,14,96,1,,,,,,,,,,,,,,,,,,,,,,,
960382,001,2022-11-20_17h55.32.249,Info_measure_main_exp,2022.2.2,Win32,47.65308554,,,,,,,,,,,,,,,,,,masks/mask_001.jpg,,,,,,,,,,,,,,,,,,,,,,,,,,,,,,,,,,,,,,,,,,,0,0,0,0,1,,,,,,,,,,,,,,,,,,,,,,,,,,,,,,,,,,,,,,,,,,,,,,
960382,001,2022-11-20_17h55.32.249,Info_measure_main_exp,2022.2.2,Win32,47.65308554,,,,,,,,,,,,,,,,,,masks/mask_003.jpg,,,,,,,,,,,,,,,,,,,,,,,,,,,,,,,,,,,,,,,,,,,0,1,1,2,1,,,,,,,,,,,,,,,,,,,,,,,,,,,,,,,,,,,,,,,,,,,,,,
960382,001,2022-11-20_17h55.32.249,Info_measure_main_exp,2022.2.2,Win32,47.65308554,,,,,,,,,,,,,,,,,,masks/mask_004.jpg,,,,,,,,,,,,,,,,,,,,,,,,,,,,,,,,,,,,,,,,,,,0,2,2,3,1,,,,,,,,,,,,,,,,,,,,,,,,,,,,,,,,,,,,,,,,,,,,,,
960382,001,2022-11-20_17h55.32.249,Info_measure_main_exp,2022.2.2,Win32,47.65308554,,,,,,,,,,,,,,,,,,masks/mask_005.jpg,,,,,,,,,,,,,,,,,,,,,,,,,,,,,,,,,,,,,,,,,,,0,3,3,4,1,,,,,,,,,,,,,,,,,,,,,,,,,,,,,,,,,,,,,,,,,,,,,,
960382,001,2022-11-20_17h55.32.249,Info_measure_main_exp,2022.2.2,Win32,47.65308554,,,,,,,,,,,,,,,,,,masks/mask_002.jpg,,,,,,,,,,,,,,,,,,,,,,,,,,,,,,,,,,,,,,,,,,,0,4,4,1,1,,,,,,,,,,,,,,,,,,,,,,,,,,,,,,,,,,,,,,,,,,,,,,
960382,001,2022-11-20_17h55.32.249,Info_measure_main_exp,2022.2.2,Win32,47.65308554,,,,,,,,,,,,,,,,,,masks/mask_001.jpg,,,,,,,,,,,,,,,,,,,,,,,,,,,,,,,,,,,,,,,,,,,,,,,,0,0,0,0,1,,,,,,,,,,,,,,,,,,,,,,,,,,,,,,,,,,,,,,,,,
960382,001,2022-11-20_17h55.32.249,Info_measure_main_exp,2022.2.2,Win32,47.65308554,,,,,,,,,,,,,,,,,,masks/mask_005.jpg,,,,,,,,,,,,,,,,,,,,,,,,,,,,,,,,,,,,,,,,,,,,,,,,0,1,1,4,1,,,,,,,,,,,,,,,,,,,,,,,,,,,,,,,,,,,,,,,,,
960382,001,2022-11-20_17h55.32.249,Info_measure_main_exp,2022.2.2,Win32,47.65308554,,,,,,,,,,,,,,,,,,masks/mask_004.jpg,,,,,,,,,,,,,,,,,,,,,,,,,,,,,,,,,,,,,,,,,,,,,,,,0,2,2,3,1,,,,,,,,,,,,,,,,,,,,,,,,,,,,,,,,,,,,,,,,,
960382,001,2022-11-20_17h55.32.249,Info_measure_main_exp,2022.2.2,Win32,47.65308554,,,,,,,,,,,,,,,,,,masks/mask_003.jpg,,,,,,,,,,,,,,,,,,,,,,,,,,,,,,,,,,,,,,,,,,,,,,,,0,3,3,2,1,,,,,,,,,,,,,,,,,,,,,,,,,,,,,,,,,,,,,,,,,
960382,001,2022-11-20_17h55.32.249,Info_measure_main_exp,2022.2.2,Win32,47.65308554,,,,,,,,,,,,,,,,,,masks/mask_002.jpg,,,,,,,,,,,,,,,,,,,,,,,,,,,,,,,,,,,,,,,,,,,,,,,,0,4,4,1,1,,,,,,,,,,,,,,,,,,,,,,,,,,,,,,,,,,,,,,,,,
960382,001,2022-11-20_17h55.32.249,Info_measure_main_exp,2022.2.2,Win32,47.65308554,,,,,,,,,,,,,,,,,,,,,,,,,,,,,,2,4.474,1,,,,,,,,,,,,1,131,5,5,1,2274,present_patch/cong_131_5_a.jpg,absent_patch/patch0002274.jpg,,,,,,,,,,,,,,,,,,,,-0.129045077,-0.049071618,1,0,0,response5disk,16,-0.00066313,-0.004509276,1,0,0,center_square,0,15,15,105,1,,,,,,,,,,,,,,,,,,,,,,,
960382,001,2022-11-20_17h55.32.249,Info_measure_main_exp,2022.2.2,Win32,47.65308554,,,,,,,,,,,,,,,,,,masks/mask_002.jpg,,,,,,,,,,,,,,,,,,,,,,,,,,,,,,,,,,,,,,,,,,,0,0,0,1,1,,,,,,,,,,,,,,,,,,,,,,,,,,,,,,,,,,,,,,,,,,,,,,
960382,001,2022-11-20_17h55.32.249,Info_measure_main_exp,2022.2.2,Win32,47.65308554,,,,,,,,,,,,,,,,,,masks/mask_001.jpg,,,,,,,,,,,,,,,,,,,,,,,,,,,,,,,,,,,,,,,,,,,0,1,1,0,1,,,,,,,,,,,,,,,,,,,,,,,,,,,,,,,,,,,,,,,,,,,,,,
960382,001,2022-11-20_17h55.32.249,Info_measure_main_exp,2022.2.2,Win32,47.65308554,,,,,,,,,,,,,,,,,,masks/mask_004.jpg,,,,,,,,,,,,,,,,,,,,,,,,,,,,,,,,,,,,,,,,,,,0,2,2,3,1,,,,,,,,,,,,,,,,,,,,,,,,,,,,,,,,,,,,,,,,,,,,,,
960382,001,2022-11-20_17h55.32.249,Info_measure_main_exp,2022.2.2,Win32,47.65308554,,,,,,,,,,,,,,,,,,masks/mask_003.jpg,,,,,,,,,,,,,,,,,,,,,,,,,,,,,,,,,,,,,,,,,,,0,3,3,2,1,,,,,,,,,,,,,,,,,,,,,,,,,,,,,,,,,,,,,,,,,,,,,,
960382,001,2022-11-20_17h55.32.249,Info_measure_main_exp,2022.2.2,Win32,47.65308554,,,,,,,,,,,,,,,,,,masks/mask_005.jpg,,,,,,,,,,,,,,,,,,,,,,,,,,,,,,,,,,,,,,,,,,,0,4,4,4,1,,,,,,,,,,,,,,,,,,,,,,,,,,,,,,,,,,,,,,,,,,,,,,
960382,001,2022-11-20_17h55.32.249,Info_measure_main_exp,2022.2.2,Win32,47.65308554,,,,,,,,,,,,,,,,,,masks/mask_004.jpg,,,,,,,,,,,,,,,,,,,,,,,,,,,,,,,,,,,,,,,,,,,,,,,,0,0,0,3,1,,,,,,,,,,,,,,,,,,,,,,,,,,,,,,,,,,,,,,,,,
960382,001,2022-11-20_17h55.32.249,Info_measure_main_exp,2022.2.2,Win32,47.65308554,,,,,,,,,,,,,,,,,,masks/mask_003.jpg,,,,,,,,,,,,,,,,,,,,,,,,,,,,,,,,,,,,,,,,,,,,,,,,0,1,1,2,1,,,,,,,,,,,,,,,,,,,,,,,,,,,,,,,,,,,,,,,,,
960382,001,2022-11-20_17h55.32.249,Info_measure_main_exp,2022.2.2,Win32,47.65308554,,,,,,,,,,,,,,,,,,masks/mask_002.jpg,,,,,,,,,,,,,,,,,,,,,,,,,,,,,,,,,,,,,,,,,,,,,,,,0,2,2,1,1,,,,,,,,,,,,,,,,,,,,,,,,,,,,,,,,,,,,,,,,,
960382,001,2022-11-20_17h55.32.249,Info_measure_main_exp,2022.2.2,Win32,47.65308554,,,,,,,,,,,,,,,,,,masks/mask_001.jpg,,,,,,,,,,,,,,,,,,,,,,,,,,,,,,,,,,,,,,,,,,,,,,,,0,3,3,0,1,,,,,,,,,,,,,,,,,,,,,,,,,,,,,,,,,,,,,,,,,
960382,001,2022-11-20_17h55.32.249,Info_measure_main_exp,2022.2.2,Win32,47.65308554,,,,,,,,,,,,,,,,,,masks/mask_005.jpg,,,,,,,,,,,,,,,,,,,,,,,,,,,,,,,,,,,,,,,,,,,,,,,,0,4,4,4,1,,,,,,,,,,,,,,,,,,,,,,,,,,,,,,,,,,,,,,,,,
960382,001,2022-11-20_17h55.32.249,Info_measure_main_exp,2022.2.2,Win32,47.65308554,,,,,,,,,,,,,,,,,,,,,,,,,,,,,,0,1.899,1,,,,,,,,,,,,0,131,5,5,1974,1974,absent_patch/patch0001974.jpg,absent_patch/patch0001974.jpg,,,,,,,,,,,,,,,,,,,,-0.084482775,0.152519894,1,0,0,response7disk,17,0.001458935,-0.008753324,1,0,0,center_square,0,16,16,113,1,,,,,,,,,,,,,,,,,,,,,,,
960382,001,2022-11-20_17h55.32.249,Info_measure_main_exp,2022.2.2,Win32,47.65308554,,,,,,,,,,,,,,,,,,masks/mask_001.jpg,,,,,,,,,,,,,,,,,,,,,,,,,,,,,,,,,,,,,,,,,,,0,0,0,0,1,,,,,,,,,,,,,,,,,,,,,,,,,,,,,,,,,,,,,,,,,,,,,,
960382,001,2022-11-20_17h55.32.249,Info_measure_main_exp,2022.2.2,Win32,47.65308554,,,,,,,,,,,,,,,,,,masks/mask_005.jpg,,,,,,,,,,,,,,,,,,,,,,,,,,,,,,,,,,,,,,,,,,,0,1,1,4,1,,,,,,,,,,,,,,,,,,,,,,,,,,,,,,,,,,,,,,,,,,,,,,
960382,001,2022-11-20_17h55.32.249,Info_measure_main_exp,2022.2.2,Win32,47.65308554,,,,,,,,,,,,,,,,,,masks/mask_004.jpg,,,,,,,,,,,,,,,,,,,,,,,,,,,,,,,,,,,,,,,,,,,0,2,2,3,1,,,,,,,,,,,,,,,,,,,,,,,,,,,,,,,,,,,,,,,,,,,,,,
960382,001,2022-11-20_17h55.32.249,Info_measure_main_exp,2022.2.2,Win32,47.65308554,,,,,,,,,,,,,,,,,,masks/mask_003.jpg,,,,,,,,,,,,,,,,,,,,,,,,,,,,,,,,,,,,,,,,,,,0,3,3,2,1,,,,,,,,,,,,,,,,,,,,,,,,,,,,,,,,,,,,,,,,,,,,,,
960382,001,2022-11-20_17h55.32.249,Info_measure_main_exp,2022.2.2,Win32,47.65308554,,,,,,,,,,,,,,,,,,masks/mask_002.jpg,,,,,,,,,,,,,,,,,,,,,,,,,,,,,,,,,,,,,,,,,,,0,4,4,1,1,,,,,,,,,,,,,,,,,,,,,,,,,,,,,,,,,,,,,,,,,,,,,,
960382,001,2022-11-20_17h55.32.249,Info_measure_main_exp,2022.2.2,Win32,47.65308554,,,,,,,,,,,,,,,,,,masks/mask_002.jpg,,,,,,,,,,,,,,,,,,,,,,,,,,,,,,,,,,,,,,,,,,,,,,,,0,0,0,1,1,,,,,,,,,,,,,,,,,,,,,,,,,,,,,,,,,,,,,,,,,
960382,001,2022-11-20_17h55.32.249,Info_measure_main_exp,2022.2.2,Win32,47.65308554,,,,,,,,,,,,,,,,,,masks/mask_001.jpg,,,,,,,,,,,,,,,,,,,,,,,,,,,,,,,,,,,,,,,,,,,,,,,,0,1,1,0,1,,,,,,,,,,,,,,,,,,,,,,,,,,,,,,,,,,,,,,,,,
960382,001,2022-11-20_17h55.32.249,Info_measure_main_exp,2022.2.2,Win32,47.65308554,,,,,,,,,,,,,,,,,,masks/mask_003.jpg,,,,,,,,,,,,,,,,,,,,,,,,,,,,,,,,,,,,,,,,,,,,,,,,0,2,2,2,1,,,,,,,,,,,,,,,,,,,,,,,,,,,,,,,,,,,,,,,,,
960382,001,2022-11-20_17h55.32.249,Info_measure_main_exp,2022.2.2,Win32,47.65308554,,,,,,,,,,,,,,,,,,masks/mask_004.jpg,,,,,,,,,,,,,,,,,,,,,,,,,,,,,,,,,,,,,,,,,,,,,,,,0,3,3,3,1,,,,,,,,,,,,,,,,,,,,,,,,,,,,,,,,,,,,,,,,,
960382,001,2022-11-20_17h55.32.249,Info_measure_main_exp,2022.2.2,Win32,47.65308554,,,,,,,,,,,,,,,,,,masks/mask_005.jpg,,,,,,,,,,,,,,,,,,,,,,,,,,,,,,,,,,,,,,,,,,,,,,,,0,4,4,4,1,,,,,,,,,,,,,,,,,,,,,,,,,,,,,,,,,,,,,,,,,
960382,001,2022-11-20_17h55.32.249,Info_measure_main_exp,2022.2.2,Win32,47.65308554,,,,,,,,,,,,,,,,,,,,,,,,,,,,,,0,1.4114,1,,,,,,,,,,,,0,131,5,5,1986,1986,absent_patch/patch0001986.jpg,absent_patch/patch0001986.jpg,,,,,,,,,,,,,,,,,,,,-0.09297079,0.167373961,1,0,0,response7disk,18,-0.007029162,0.002917748,1,0,0,center_square,0,17,17,19,1,,,,,,,,,,,,,,,,,,,,,,,
960382,001,2022-11-20_17h55.32.249,Info_measure_main_exp,2022.2.2,Win32,47.65308554,,,,,,,,,,,,,,,,,,masks/mask_001.jpg,,,,,,,,,,,,,,,,,,,,,,,,,,,,,,,,,,,,,,,,,,,0,0,0,0,1,,,,,,,,,,,,,,,,,,,,,,,,,,,,,,,,,,,,,,,,,,,,,,
960382,001,2022-11-20_17h55.32.249,Info_measure_main_exp,2022.2.2,Win32,47.65308554,,,,,,,,,,,,,,,,,,masks/mask_003.jpg,,,,,,,,,,,,,,,,,,,,,,,,,,,,,,,,,,,,,,,,,,,0,1,1,2,1,,,,,,,,,,,,,,,,,,,,,,,,,,,,,,,,,,,,,,,,,,,,,,
960382,001,2022-11-20_17h55.32.249,Info_measure_main_exp,2022.2.2,Win32,47.65308554,,,,,,,,,,,,,,,,,,masks/mask_002.jpg,,,,,,,,,,,,,,,,,,,,,,,,,,,,,,,,,,,,,,,,,,,0,2,2,1,1,,,,,,,,,,,,,,,,,,,,,,,,,,,,,,,,,,,,,,,,,,,,,,
960382,001,2022-11-20_17h55.32.249,Info_measure_main_exp,2022.2.2,Win32,47.65308554,,,,,,,,,,,,,,,,,,masks/mask_005.jpg,,,,,,,,,,,,,,,,,,,,,,,,,,,,,,,,,,,,,,,,,,,0,3,3,4,1,,,,,,,,,,,,,,,,,,,,,,,,,,,,,,,,,,,,,,,,,,,,,,
960382,001,2022-11-20_17h55.32.249,Info_measure_main_exp,2022.2.2,Win32,47.65308554,,,,,,,,,,,,,,,,,,masks/mask_004.jpg,,,,,,,,,,,,,,,,,,,,,,,,,,,,,,,,,,,,,,,,,,,0,4,4,3,1,,,,,,,,,,,,,,,,,,,,,,,,,,,,,,,,,,,,,,,,,,,,,,
960382,001,2022-11-20_17h55.32.249,Info_measure_main_exp,2022.2.2,Win32,47.65308554,,,,,,,,,,,,,,,,,,masks/mask_002.jpg,,,,,,,,,,,,,,,,,,,,,,,,,,,,,,,,,,,,,,,,,,,,,,,,0,0,0,1,1,,,,,,,,,,,,,,,,,,,,,,,,,,,,,,,,,,,,,,,,,
960382,001,2022-11-20_17h55.32.249,Info_measure_main_exp,2022.2.2,Win32,47.65308554,,,,,,,,,,,,,,,,,,masks/mask_003.jpg,,,,,,,,,,,,,,,,,,,,,,,,,,,,,,,,,,,,,,,,,,,,,,,,0,1,1,2,1,,,,,,,,,,,,,,,,,,,,,,,,,,,,,,,,,,,,,,,,,
960382,001,2022-11-20_17h55.32.249,Info_measure_main_exp,2022.2.2,Win32,47.65308554,,,,,,,,,,,,,,,,,,masks/mask_005.jpg,,,,,,,,,,,,,,,,,,,,,,,,,,,,,,,,,,,,,,,,,,,,,,,,0,2,2,4,1,,,,,,,,,,,,,,,,,,,,,,,,,,,,,,,,,,,,,,,,,
960382,001,2022-11-20_17h55.32.249,Info_measure_main_exp,2022.2.2,Win32,47.65308554,,,,,,,,,,,,,,,,,,masks/mask_004.jpg,,,,,,,,,,,,,,,,,,,,,,,,,,,,,,,,,,,,,,,,,,,,,,,,0,3,3,3,1,,,,,,,,,,,,,,,,,,,,,,,,,,,,,,,,,,,,,,,,,
960382,001,2022-11-20_17h55.32.249,Info_measure_main_exp,2022.2.2,Win32,47.65308554,,,,,,,,,,,,,,,,,,masks/mask_001.jpg,,,,,,,,,,,,,,,,,,,,,,,,,,,,,,,,,,,,,,,,,,,,,,,,0,4,4,0,1,,,,,,,,,,,,,,,,,,,,,,,,,,,,,,,,,,,,,,,,,
960382,001,2022-11-20_17h55.32.249,Info_measure_main_exp,2022.2.2,Win32,47.65308554,,,,,,,,,,,,,,,,,,,,,,,,,,,,,,6,2.5401,1,,,,,,,,,,,,0,131,5,5,2082,2154,absent_patch/patch0002082.jpg,absent_patch/patch0002154.jpg,,,,,,,,,,,,,,,,,,,,0.104376674,0.037931043,1,0,0,response1disk,19,-0.002785114,-0.004509276,1,0,0,center_square,0,18,18,33,1,,,,,,,,,,,,,,,,,,,,,,,
960382,001,2022-11-20_17h55.32.249,Info_measure_main_exp,2022.2.2,Win32,47.65308554,,,,,,,,,,,,,,,,,,masks/mask_001.jpg,,,,,,,,,,,,,,,,,,,,,,,,,,,,,,,,,,,,,,,,,,,0,0,0,0,1,,,,,,,,,,,,,,,,,,,,,,,,,,,,,,,,,,,,,,,,,,,,,,
960382,001,2022-11-20_17h55.32.249,Info_measure_main_exp,2022.2.2,Win32,47.65308554,,,,,,,,,,,,,,,,,,masks/mask_003.jpg,,,,,,,,,,,,,,,,,,,,,,,,,,,,,,,,,,,,,,,,,,,0,1,1,2,1,,,,,,,,,,,,,,,,,,,,,,,,,,,,,,,,,,,,,,,,,,,,,,
960382,001,2022-11-20_17h55.32.249,Info_measure_main_exp,2022.2.2,Win32,47.65308554,,,,,,,,,,,,,,,,,,masks/mask_005.jpg,,,,,,,,,,,,,,,,,,,,,,,,,,,,,,,,,,,,,,,,,,,0,2,2,4,1,,,,,,,,,,,,,,,,,,,,,,,,,,,,,,,,,,,,,,,,,,,,,,
960382,001,2022-11-20_17h55.32.249,Info_measure_main_exp,2022.2.2,Win32,47.65308554,,,,,,,,,,,,,,,,,,masks/mask_004.jpg,,,,,,,,,,,,,,,,,,,,,,,,,,,,,,,,,,,,,,,,,,,0,3,3,3,1,,,,,,,,,,,,,,,,,,,,,,,,,,,,,,,,,,,,,,,,,,,,,,
960382,001,2022-11-20_17h55.32.249,Info_measure_main_exp,2022.2.2,Win32,47.65308554,,,,,,,,,,,,,,,,,,masks/mask_002.jpg,,,,,,,,,,,,,,,,,,,,,,,,,,,,,,,,,,,,,,,,,,,0,4,4,1,1,,,,,,,,,,,,,,,,,,,,,,,,,,,,,,,,,,,,,,,,,,,,,,
960382,001,2022-11-20_17h55.32.249,Info_measure_main_exp,2022.2.2,Win32,47.65308554,,,,,,,,,,,,,,,,,,masks/mask_003.jpg,,,,,,,,,,,,,,,,,,,,,,,,,,,,,,,,,,,,,,,,,,,,,,,,0,0,0,2,1,,,,,,,,,,,,,,,,,,,,,,,,,,,,,,,,,,,,,,,,,
960382,001,2022-11-20_17h55.32.249,Info_measure_main_exp,2022.2.2,Win32,47.65308554,,,,,,,,,,,,,,,,,,masks/mask_005.jpg,,,,,,,,,,,,,,,,,,,,,,,,,,,,,,,,,,,,,,,,,,,,,,,,0,1,1,4,1,,,,,,,,,,,,,,,,,,,,,,,,,,,,,,,,,,,,,,,,,
960382,001,2022-11-20_17h55.32.249,Info_measure_main_exp,2022.2.2,Win32,47.65308554,,,,,,,,,,,,,,,,,,masks/mask_004.jpg,,,,,,,,,,,,,,,,,,,,,,,,,,,,,,,,,,,,,,,,,,,,,,,,0,2,2,3,1,,,,,,,,,,,,,,,,,,,,,,,,,,,,,,,,,,,,,,,,,
960382,001,2022-11-20_17h55.32.249,Info_measure_main_exp,2022.2.2,Win32,47.65308554,,,,,,,,,,,,,,,,,,masks/mask_002.jpg,,,,,,,,,,,,,,,,,,,,,,,,,,,,,,,,,,,,,,,,,,,,,,,,0,3,3,1,1,,,,,,,,,,,,,,,,,,,,,,,,,,,,,,,,,,,,,,,,,
960382,001,2022-11-20_17h55.32.249,Info_measure_main_exp,2022.2.2,Win32,47.65308554,,,,,,,,,,,,,,,,,,masks/mask_001.jpg,,,,,,,,,,,,,,,,,,,,,,,,,,,,,,,,,,,,,,,,,,,,,,,,0,4,4,0,1,,,,,,,,,,,,,,,,,,,,,,,,,,,,,,,,,,,,,,,,,
960382,001,2022-11-20_17h55.32.249,Info_measure_main_exp,2022.2.2,Win32,47.65308554,,,,,,,,,,,,,,,,,,,,,,,,,,,,,,4,2.7036,1,,,,,,,,,,,,0,131,5,5,2274,2166,absent_patch/patch0002274.jpg,absent_patch/patch0002166.jpg,,,,,,,,,,,,,,,,,,,,0.029045125,-0.133952255,1,0,0,response3disk,20,-0.001724122,-0.0066313,1,0,0,center_square,0,19,19,78,1,,,,,,,,,,,,,,,,,,,,,,,
960382,001,2022-11-20_17h55.32.249,Info_measure_main_exp,2022.2.2,Win32,47.65308554,,,,,,,,,,,,,,,,,,masks/mask_005.jpg,,,,,,,,,,,,,,,,,,,,,,,,,,,,,,,,,,,,,,,,,,,0,0,0,4,1,,,,,,,,,,,,,,,,,,,,,,,,,,,,,,,,,,,,,,,,,,,,,,
960382,001,2022-11-20_17h55.32.249,Info_measure_main_exp,2022.2.2,Win32,47.65308554,,,,,,,,,,,,,,,,,,masks/mask_001.jpg,,,,,,,,,,,,,,,,,,,,,,,,,,,,,,,,,,,,,,,,,,,0,1,1,0,1,,,,,,,,,,,,,,,,,,,,,,,,,,,,,,,,,,,,,,,,,,,,,,
960382,001,2022-11-20_17h55.32.249,Info_measure_main_exp,2022.2.2,Win32,47.65308554,,,,,,,,,,,,,,,,,,masks/mask_003.jpg,,,,,,,,,,,,,,,,,,,,,,,,,,,,,,,,,,,,,,,,,,,0,2,2,2,1,,,,,,,,,,,,,,,,,,,,,,,,,,,,,,,,,,,,,,,,,,,,,,
960382,001,2022-11-20_17h55.32.249,Info_measure_main_exp,2022.2.2,Win32,47.65308554,,,,,,,,,,,,,,,,,,masks/mask_004.jpg,,,,,,,,,,,,,,,,,,,,,,,,,,,,,,,,,,,,,,,,,,,0,3,3,3,1,,,,,,,,,,,,,,,,,,,,,,,,,,,,,,,,,,,,,,,,,,,,,,
960382,001,2022-11-20_17h55.32.249,Info_measure_main_exp,2022.2.2,Win32,47.65308554,,,,,,,,,,,,,,,,,,masks/mask_002.jpg,,,,,,,,,,,,,,,,,,,,,,,,,,,,,,,,,,,,,,,,,,,0,4,4,1,1,,,,,,,,,,,,,,,,,,,,,,,,,,,,,,,,,,,,,,,,,,,,,,
960382,001,2022-11-20_17h55.32.249,Info_measure_main_exp,2022.2.2,Win32,47.65308554,,,,,,,,,,,,,,,,,,masks/mask_004.jpg,,,,,,,,,,,,,,,,,,,,,,,,,,,,,,,,,,,,,,,,,,,,,,,,0,0,0,3,1,,,,,,,,,,,,,,,,,,,,,,,,,,,,,,,,,,,,,,,,,
960382,001,2022-11-20_17h55.32.249,Info_measure_main_exp,2022.2.2,Win32,47.65308554,,,,,,,,,,,,,,,,,,masks/mask_002.jpg,,,,,,,,,,,,,,,,,,,,,,,,,,,,,,,,,,,,,,,,,,,,,,,,0,1,1,1,1,,,,,,,,,,,,,,,,,,,,,,,,,,,,,,,,,,,,,,,,,
960382,001,2022-11-20_17h55.32.249,Info_measure_main_exp,2022.2.2,Win32,47.65308554,,,,,,,,,,,,,,,,,,masks/mask_003.jpg,,,,,,,,,,,,,,,,,,,,,,,,,,,,,,,,,,,,,,,,,,,,,,,,0,2,2,2,1,,,,,,,,,,,,,,,,,,,,,,,,,,,,,,,,,,,,,,,,,
960382,001,2022-11-20_17h55.32.249,Info_measure_main_exp,2022.2.2,Win32,47.65308554,,,,,,,,,,,,,,,,,,masks/mask_001.jpg,,,,,,,,,,,,,,,,,,,,,,,,,,,,,,,,,,,,,,,,,,,,,,,,0,3,3,0,1,,,,,,,,,,,,,,,,,,,,,,,,,,,,,,,,,,,,,,,,,
960382,001,2022-11-20_17h55.32.249,Info_measure_main_exp,2022.2.2,Win32,47.65308554,,,,,,,,,,,,,,,,,,masks/mask_005.jpg,,,,,,,,,,,,,,,,,,,,,,,,,,,,,,,,,,,,,,,,,,,,,,,,0,4,4,4,1,,,,,,,,,,,,,,,,,,,,,,,,,,,,,,,,,,,,,,,,,
960382,001,2022-11-20_17h55.32.249,Info_measure_main_exp,2022.2.2,Win32,47.65308554,,,,,,,,,,,,,,,,,,,,,,,,,,,,,,2,1.9779,1,,,,,,,,,,,,0,131,5,5,2190,1974,absent_patch/patch0002190.jpg,absent_patch/patch0001974.jpg,,,,,,,,,,,,,,,,,,,,-0.075994679,-0.028912491,1,0,0,response5disk,21,-0.001724122,0.001856756,1,0,0,center_square,0,20,20,119,1,,,,,,,,,,,,,,,,,,,,,,,
960382,001,2022-11-20_17h55.32.249,Info_measure_main_exp,2022.2.2,Win32,47.65308554,,,,,,,,,,,,,,,,,,masks/mask_003.jpg,,,,,,,,,,,,,,,,,,,,,,,,,,,,,,,,,,,,,,,,,,,0,0,0,2,1,,,,,,,,,,,,,,,,,,,,,,,,,,,,,,,,,,,,,,,,,,,,,,
960382,001,2022-11-20_17h55.32.249,Info_measure_main_exp,2022.2.2,Win32,47.65308554,,,,,,,,,,,,,,,,,,masks/mask_002.jpg,,,,,,,,,,,,,,,,,,,,,,,,,,,,,,,,,,,,,,,,,,,0,1,1,1,1,,,,,,,,,,,,,,,,,,,,,,,,,,,,,,,,,,,,,,,,,,,,,,
960382,001,2022-11-20_17h55.32.249,Info_measure_main_exp,2022.2.2,Win32,47.65308554,,,,,,,,,,,,,,,,,,masks/mask_004.jpg,,,,,,,,,,,,,,,,,,,,,,,,,,,,,,,,,,,,,,,,,,,0,2,2,3,1,,,,,,,,,,,,,,,,,,,,,,,,,,,,,,,,,,,,,,,,,,,,,,
960382,001,2022-11-20_17h55.32.249,Info_measure_main_exp,2022.2.2,Win32,47.65308554,,,,,,,,,,,,,,,,,,masks/mask_005.jpg,,,,,,,,,,,,,,,,,,,,,,,,,,,,,,,,,,,,,,,,,,,0,3,3,4,1,,,,,,,,,,,,,,,,,,,,,,,,,,,,,,,,,,,,,,,,,,,,,,
960382,001,2022-11-20_17h55.32.249,Info_measure_main_exp,2022.2.2,Win32,47.65308554,,,,,,,,,,,,,,,,,,masks/mask_001.jpg,,,,,,,,,,,,,,,,,,,,,,,,,,,,,,,,,,,,,,,,,,,0,4,4,0,1,,,,,,,,,,,,,,,,,,,,,,,,,,,,,,,,,,,,,,,,,,,,,,
960382,001,2022-11-20_17h55.32.249,Info_measure_main_exp,2022.2.2,Win32,47.65308554,,,,,,,,,,,,,,,,,,masks/mask_001.jpg,,,,,,,,,,,,,,,,,,,,,,,,,,,,,,,,,,,,,,,,,,,,,,,,0,0,0,0,1,,,,,,,,,,,,,,,,,,,,,,,,,,,,,,,,,,,,,,,,,
960382,001,2022-11-20_17h55.32.249,Info_measure_main_exp,2022.2.2,Win32,47.65308554,,,,,,,,,,,,,,,,,,masks/mask_003.jpg,,,,,,,,,,,,,,,,,,,,,,,,,,,,,,,,,,,,,,,,,,,,,,,,0,1,1,2,1,,,,,,,,,,,,,,,,,,,,,,,,,,,,,,,,,,,,,,,,,
960382,001,2022-11-20_17h55.32.249,Info_measure_main_exp,2022.2.2,Win32,47.65308554,,,,,,,,,,,,,,,,,,masks/mask_005.jpg,,,,,,,,,,,,,,,,,,,,,,,,,,,,,,,,,,,,,,,,,,,,,,,,0,2,2,4,1,,,,,,,,,,,,,,,,,,,,,,,,,,,,,,,,,,,,,,,,,
960382,001,2022-11-20_17h55.32.249,Info_measure_main_exp,2022.2.2,Win32,47.65308554,,,,,,,,,,,,,,,,,,masks/mask_004.jpg,,,,,,,,,,,,,,,,,,,,,,,,,,,,,,,,,,,,,,,,,,,,,,,,0,3,3,3,1,,,,,,,,,,,,,,,,,,,,,,,,,,,,,,,,,,,,,,,,,
960382,001,2022-11-20_17h55.32.249,Info_measure_main_exp,2022.2.2,Win32,47.65308554,,,,,,,,,,,,,,,,,,masks/mask_002.jpg,,,,,,,,,,,,,,,,,,,,,,,,,,,,,,,,,,,,,,,,,,,,,,,,0,4,4,1,1,,,,,,,,,,,,,,,,,,,,,,,,,,,,,,,,,,,,,,,,,
960382,001,2022-11-20_17h55.32.249,Info_measure_main_exp,2022.2.2,Win32,47.65308554,,,,,,,,,,,,,,,,,,,,,,,,,,,,,,4,1.8295,1,,,,,,,,,,,,0,131,5,5,2190,2238,absent_patch/patch0002190.jpg,absent_patch/patch0002238.jpg,,,,,,,,,,,,,,,,,,,,0.008885958,-0.094694952,1,0,0,response3disk,22,-0.004907178,0.012466835,1,0,0,center_square,0,21,21,53,1,,,,,,,,,,,,,,,,,,,,,,,
960382,001,2022-11-20_17h55.32.249,Info_measure_main_exp,2022.2.2,Win32,47.65308554,,,,,,,,,,,,,,,,,,masks/mask_002.jpg,,,,,,,,,,,,,,,,,,,,,,,,,,,,,,,,,,,,,,,,,,,0,0,0,1,1,,,,,,,,,,,,,,,,,,,,,,,,,,,,,,,,,,,,,,,,,,,,,,
960382,001,2022-11-20_17h55.32.249,Info_measure_main_exp,2022.2.2,Win32,47.65308554,,,,,,,,,,,,,,,,,,masks/mask_004.jpg,,,,,,,,,,,,,,,,,,,,,,,,,,,,,,,,,,,,,,,,,,,0,1,1,3,1,,,,,,,,,,,,,,,,,,,,,,,,,,,,,,,,,,,,,,,,,,,,,,
960382,001,2022-11-20_17h55.32.249,Info_measure_main_exp,2022.2.2,Win32,47.65308554,,,,,,,,,,,,,,,,,,masks/mask_001.jpg,,,,,,,,,,,,,,,,,,,,,,,,,,,,,,,,,,,,,,,,,,,0,2,2,0,1,,,,,,,,,,,,,,,,,,,,,,,,,,,,,,,,,,,,,,,,,,,,,,
960382,001,2022-11-20_17h55.32.249,Info_measure_main_exp,2022.2.2,Win32,47.65308554,,,,,,,,,,,,,,,,,,masks/mask_005.jpg,,,,,,,,,,,,,,,,,,,,,,,,,,,,,,,,,,,,,,,,,,,0,3,3,4,1,,,,,,,,,,,,,,,,,,,,,,,,,,,,,,,,,,,,,,,,,,,,,,
960382,001,2022-11-20_17h55.32.249,Info_measure_main_exp,2022.2.2,Win32,47.65308554,,,,,,,,,,,,,,,,,,masks/mask_003.jpg,,,,,,,,,,,,,,,,,,,,,,,,,,,,,,,,,,,,,,,,,,,0,4,4,2,1,,,,,,,,,,,,,,,,,,,,,,,,,,,,,,,,,,,,,,,,,,,,,,
960382,001,2022-11-20_17h55.32.249,Info_measure_main_exp,2022.2.2,Win32,47.65308554,,,,,,,,,,,,,,,,,,masks/mask_005.jpg,,,,,,,,,,,,,,,,,,,,,,,,,,,,,,,,,,,,,,,,,,,,,,,,0,0,0,4,1,,,,,,,,,,,,,,,,,,,,,,,,,,,,,,,,,,,,,,,,,
960382,001,2022-11-20_17h55.32.249,Info_measure_main_exp,2022.2.2,Win32,47.65308554,,,,,,,,,,,,,,,,,,masks/mask_002.jpg,,,,,,,,,,,,,,,,,,,,,,,,,,,,,,,,,,,,,,,,,,,,,,,,0,1,1,1,1,,,,,,,,,,,,,,,,,,,,,,,,,,,,,,,,,,,,,,,,,
960382,001,2022-11-20_17h55.32.249,Info_measure_main_exp,2022.2.2,Win32,47.65308554,,,,,,,,,,,,,,,,,,masks/mask_004.jpg,,,,,,,,,,,,,,,,,,,,,,,,,,,,,,,,,,,,,,,,,,,,,,,,0,2,2,3,1,,,,,,,,,,,,,,,,,,,,,,,,,,,,,,,,,,,,,,,,,
960382,001,2022-11-20_17h55.32.249,Info_measure_main_exp,2022.2.2,Win32,47.65308554,,,,,,,,,,,,,,,,,,masks/mask_003.jpg,,,,,,,,,,,,,,,,,,,,,,,,,,,,,,,,,,,,,,,,,,,,,,,,0,3,3,2,1,,,,,,,,,,,,,,,,,,,,,,,,,,,,,,,,,,,,,,,,,
960382,001,2022-11-20_17h55.32.249,Info_measure_main_exp,2022.2.2,Win32,47.65308554,,,,,,,,,,,,,,,,,,masks/mask_001.jpg,,,,,,,,,,,,,,,,,,,,,,,,,,,,,,,,,,,,,,,,,,,,,,,,0,4,4,0,1,,,,,,,,,,,,,,,,,,,,,,,,,,,,,,,,,,,,,,,,,
960382,001,2022-11-20_17h55.32.249,Info_measure_main_exp,2022.2.2,Win32,47.65308554,,,,,,,,,,,,,,,,,,,,,,,,,,,,,,5,1.9131,1,,,,,,,,,,,,0,131,5,5,2274,2190,absent_patch/patch0002274.jpg,absent_patch/patch0002190.jpg,,,,,,,,,,,,,,,,,,,,0.074668419,-0.012997372,1,0,0,response3disk,23,-0.002785114,0.006100804,1,0,0,center_square,0,22,22,116,1,,,,,,,,,,,,,,,,,,,,,,,
960382,001,2022-11-20_17h55.32.249,Info_measure_main_exp,2022.2.2,Win32,47.65308554,,,,,,,,,,,,,,,,,,masks/mask_002.jpg,,,,,,,,,,,,,,,,,,,,,,,,,,,,,,,,,,,,,,,,,,,0,0,0,1,1,,,,,,,,,,,,,,,,,,,,,,,,,,,,,,,,,,,,,,,,,,,,,,
960382,001,2022-11-20_17h55.32.249,Info_measure_main_exp,2022.2.2,Win32,47.65308554,,,,,,,,,,,,,,,,,,masks/mask_004.jpg,,,,,,,,,,,,,,,,,,,,,,,,,,,,,,,,,,,,,,,,,,,0,1,1,3,1,,,,,,,,,,,,,,,,,,,,,,,,,,,,,,,,,,,,,,,,,,,,,,
960382,001,2022-11-20_17h55.32.249,Info_measure_main_exp,2022.2.2,Win32,47.65308554,,,,,,,,,,,,,,,,,,masks/mask_001.jpg,,,,,,,,,,,,,,,,,,,,,,,,,,,,,,,,,,,,,,,,,,,0,2,2,0,1,,,,,,,,,,,,,,,,,,,,,,,,,,,,,,,,,,,,,,,,,,,,,,
960382,001,2022-11-20_17h55.32.249,Info_measure_main_exp,2022.2.2,Win32,47.65308554,,,,,,,,,,,,,,,,,,masks/mask_005.jpg,,,,,,,,,,,,,,,,,,,,,,,,,,,,,,,,,,,,,,,,,,,0,3,3,4,1,,,,,,,,,,,,,,,,,,,,,,,,,,,,,,,,,,,,,,,,,,,,,,
960382,001,2022-11-20_17h55.32.249,Info_measure_main_exp,2022.2.2,Win32,47.65308554,,,,,,,,,,,,,,,,,,masks/mask_003.jpg,,,,,,,,,,,,,,,,,,,,,,,,,,,,,,,,,,,,,,,,,,,0,4,4,2,1,,,,,,,,,,,,,,,,,,,,,,,,,,,,,,,,,,,,,,,,,,,,,,
960382,001,2022-11-20_17h55.32.249,Info_measure_main_exp,2022.2.2,Win32,47.65308554,,,,,,,,,,,,,,,,,,masks/mask_002.jpg,,,,,,,,,,,,,,,,,,,,,,,,,,,,,,,,,,,,,,,,,,,,,,,,0,0,0,1,1,,,,,,,,,,,,,,,,,,,,,,,,,,,,,,,,,,,,,,,,,
960382,001,2022-11-20_17h55.32.249,Info_measure_main_exp,2022.2.2,Win32,47.65308554,,,,,,,,,,,,,,,,,,masks/mask_001.jpg,,,,,,,,,,,,,,,,,,,,,,,,,,,,,,,,,,,,,,,,,,,,,,,,0,1,1,0,1,,,,,,,,,,,,,,,,,,,,,,,,,,,,,,,,,,,,,,,,,
960382,001,2022-11-20_17h55.32.249,Info_measure_main_exp,2022.2.2,Win32,47.65308554,,,,,,,,,,,,,,,,,,masks/mask_004.jpg,,,,,,,,,,,,,,,,,,,,,,,,,,,,,,,,,,,,,,,,,,,,,,,,0,2,2,3,1,,,,,,,,,,,,,,,,,,,,,,,,,,,,,,,,,,,,,,,,,
960382,001,2022-11-20_17h55.32.249,Info_measure_main_exp,2022.2.2,Win32,47.65308554,,,,,,,,,,,,,,,,,,masks/mask_005.jpg,,,,,,,,,,,,,,,,,,,,,,,,,,,,,,,,,,,,,,,,,,,,,,,,0,3,3,4,1,,,,,,,,,,,,,,,,,,,,,,,,,,,,,,,,,,,,,,,,,
960382,001,2022-11-20_17h55.32.249,Info_measure_main_exp,2022.2.2,Win32,47.65308554,,,,,,,,,,,,,,,,,,masks/mask_003.jpg,,,,,,,,,,,,,,,,,,,,,,,,,,,,,,,,,,,,,,,,,,,,,,,,0,4,4,2,1,,,,,,,,,,,,,,,,,,,,,,,,,,,,,,,,,,,,,,,,,
960382,001,2022-11-20_17h55.32.249,Info_measure_main_exp,2022.2.2,Win32,47.65308554,,,,,,,,,,,,,,,,,,,,,,,,,,,,,,4,2.2301,1,,,,,,,,,,,,0,131,5,5,2166,2154,absent_patch/patch0002166.jpg,absent_patch/patch0002154.jpg,,,,,,,,,,,,,,,,,,,,0.054509332,-0.062864713,1,0,0,response3disk,24,-0.001724122,-0.0066313,1,0,0,center_square,0,23,23,79,1,,,,,,,,,,,,,,,,,,,,,,,
960382,001,2022-11-20_17h55.32.249,Info_measure_main_exp,2022.2.2,Win32,47.65308554,,,,,,,,,,,,,,,,,,masks/mask_002.jpg,,,,,,,,,,,,,,,,,,,,,,,,,,,,,,,,,,,,,,,,,,,0,0,0,1,1,,,,,,,,,,,,,,,,,,,,,,,,,,,,,,,,,,,,,,,,,,,,,,
960382,001,2022-11-20_17h55.32.249,Info_measure_main_exp,2022.2.2,Win32,47.65308554,,,,,,,,,,,,,,,,,,masks/mask_001.jpg,,,,,,,,,,,,,,,,,,,,,,,,,,,,,,,,,,,,,,,,,,,0,1,1,0,1,,,,,,,,,,,,,,,,,,,,,,,,,,,,,,,,,,,,,,,,,,,,,,
960382,001,2022-11-20_17h55.32.249,Info_measure_main_exp,2022.2.2,Win32,47.65308554,,,,,,,,,,,,,,,,,,masks/mask_003.jpg,,,,,,,,,,,,,,,,,,,,,,,,,,,,,,,,,,,,,,,,,,,0,2,2,2,1,,,,,,,,,,,,,,,,,,,,,,,,,,,,,,,,,,,,,,,,,,,,,,
960382,001,2022-11-20_17h55.32.249,Info_measure_main_exp,2022.2.2,Win32,47.65308554,,,,,,,,,,,,,,,,,,masks/mask_005.jpg,,,,,,,,,,,,,,,,,,,,,,,,,,,,,,,,,,,,,,,,,,,0,3,3,4,1,,,,,,,,,,,,,,,,,,,,,,,,,,,,,,,,,,,,,,,,,,,,,,
960382,001,2022-11-20_17h55.32.249,Info_measure_main_exp,2022.2.2,Win32,47.65308554,,,,,,,,,,,,,,,,,,masks/mask_004.jpg,,,,,,,,,,,,,,,,,,,,,,,,,,,,,,,,,,,,,,,,,,,0,4,4,3,1,,,,,,,,,,,,,,,,,,,,,,,,,,,,,,,,,,,,,,,,,,,,,,
960382,001,2022-11-20_17h55.32.249,Info_measure_main_exp,2022.2.2,Win32,47.65308554,,,,,,,,,,,,,,,,,,masks/mask_002.jpg,,,,,,,,,,,,,,,,,,,,,,,,,,,,,,,,,,,,,,,,,,,,,,,,0,0,0,1,1,,,,,,,,,,,,,,,,,,,,,,,,,,,,,,,,,,,,,,,,,
960382,001,2022-11-20_17h55.32.249,Info_measure_main_exp,2022.2.2,Win32,47.65308554,,,,,,,,,,,,,,,,,,masks/mask_005.jpg,,,,,,,,,,,,,,,,,,,,,,,,,,,,,,,,,,,,,,,,,,,,,,,,0,1,1,4,1,,,,,,,,,,,,,,,,,,,,,,,,,,,,,,,,,,,,,,,,,
960382,001,2022-11-20_17h55.32.249,Info_measure_main_exp,2022.2.2,Win32,47.65308554,,,,,,,,,,,,,,,,,,masks/mask_003.jpg,,,,,,,,,,,,,,,,,,,,,,,,,,,,,,,,,,,,,,,,,,,,,,,,0,2,2,2,1,,,,,,,,,,,,,,,,,,,,,,,,,,,,,,,,,,,,,,,,,
960382,001,2022-11-20_17h55.32.249,Info_measure_main_exp,2022.2.2,Win32,47.65308554,,,,,,,,,,,,,,,,,,masks/mask_004.jpg,,,,,,,,,,,,,,,,,,,,,,,,,,,,,,,,,,,,,,,,,,,,,,,,0,3,3,3,1,,,,,,,,,,,,,,,,,,,,,,,,,,,,,,,,,,,,,,,,,
960382,001,2022-11-20_17h55.32.249,Info_measure_main_exp,2022.2.2,Win32,47.65308554,,,,,,,,,,,,,,,,,,masks/mask_001.jpg,,,,,,,,,,,,,,,,,,,,,,,,,,,,,,,,,,,,,,,,,,,,,,,,0,4,4,0,1,,,,,,,,,,,,,,,,,,,,,,,,,,,,,,,,,,,,,,,,,
960382,001,2022-11-20_17h55.32.249,Info_measure_main_exp,2022.2.2,Win32,47.65308554,,,,,,,,,,,,,,,,,,,,,,,,,,,,,,0,0.9377,1,,,,,,,,,,,,0,131,5,5,2214,2214,absent_patch/patch0002214.jpg,absent_patch/patch0002214.jpg,,,,,,,,,,,,,,,,,,,,-0.057957576,0.163129973,1,0,0,response7disk,25,0.002519926,0.001856756,1,0,0,center_square,0,24,24,115,1,,,,,,,,,,,,,,,,,,,,,,,
960382,001,2022-11-20_17h55.32.249,Info_measure_main_exp,2022.2.2,Win32,47.65308554,,,,,,,,,,,,,,,,,,masks/mask_003.jpg,,,,,,,,,,,,,,,,,,,,,,,,,,,,,,,,,,,,,,,,,,,0,0,0,2,1,,,,,,,,,,,,,,,,,,,,,,,,,,,,,,,,,,,,,,,,,,,,,,
960382,001,2022-11-20_17h55.32.249,Info_measure_main_exp,2022.2.2,Win32,47.65308554,,,,,,,,,,,,,,,,,,masks/mask_001.jpg,,,,,,,,,,,,,,,,,,,,,,,,,,,,,,,,,,,,,,,,,,,0,1,1,0,1,,,,,,,,,,,,,,,,,,,,,,,,,,,,,,,,,,,,,,,,,,,,,,
960382,001,2022-11-20_17h55.32.249,Info_measure_main_exp,2022.2.2,Win32,47.65308554,,,,,,,,,,,,,,,,,,masks/mask_004.jpg,,,,,,,,,,,,,,,,,,,,,,,,,,,,,,,,,,,,,,,,,,,0,2,2,3,1,,,,,,,,,,,,,,,,,,,,,,,,,,,,,,,,,,,,,,,,,,,,,,
960382,001,2022-11-20_17h55.32.249,Info_measure_main_exp,2022.2.2,Win32,47.65308554,,,,,,,,,,,,,,,,,,masks/mask_002.jpg,,,,,,,,,,,,,,,,,,,,,,,,,,,,,,,,,,,,,,,,,,,0,3,3,1,1,,,,,,,,,,,,,,,,,,,,,,,,,,,,,,,,,,,,,,,,,,,,,,
960382,001,2022-11-20_17h55.32.249,Info_measure_main_exp,2022.2.2,Win32,47.65308554,,,,,,,,,,,,,,,,,,masks/mask_005.jpg,,,,,,,,,,,,,,,,,,,,,,,,,,,,,,,,,,,,,,,,,,,0,4,4,4,1,,,,,,,,,,,,,,,,,,,,,,,,,,,,,,,,,,,,,,,,,,,,,,
960382,001,2022-11-20_17h55.32.249,Info_measure_main_exp,2022.2.2,Win32,47.65308554,,,,,,,,,,,,,,,,,,masks/mask_004.jpg,,,,,,,,,,,,,,,,,,,,,,,,,,,,,,,,,,,,,,,,,,,,,,,,0,0,0,3,1,,,,,,,,,,,,,,,,,,,,,,,,,,,,,,,,,,,,,,,,,
960382,001,2022-11-20_17h55.32.249,Info_measure_main_exp,2022.2.2,Win32,47.65308554,,,,,,,,,,,,,,,,,,masks/mask_002.jpg,,,,,,,,,,,,,,,,,,,,,,,,,,,,,,,,,,,,,,,,,,,,,,,,0,1,1,1,1,,,,,,,,,,,,,,,,,,,,,,,,,,,,,,,,,,,,,,,,,
960382,001,2022-11-20_17h55.32.249,Info_measure_main_exp,2022.2.2,Win32,47.65308554,,,,,,,,,,,,,,,,,,masks/mask_001.jpg,,,,,,,,,,,,,,,,,,,,,,,,,,,,,,,,,,,,,,,,,,,,,,,,0,2,2,0,1,,,,,,,,,,,,,,,,,,,,,,,,,,,,,,,,,,,,,,,,,
960382,001,2022-11-20_17h55.32.249,Info_measure_main_exp,2022.2.2,Win32,47.65308554,,,,,,,,,,,,,,,,,,masks/mask_005.jpg,,,,,,,,,,,,,,,,,,,,,,,,,,,,,,,,,,,,,,,,,,,,,,,,0,3,3,4,1,,,,,,,,,,,,,,,,,,,,,,,,,,,,,,,,,,,,,,,,,
960382,001,2022-11-20_17h55.32.249,Info_measure_main_exp,2022.2.2,Win32,47.65308554,,,,,,,,,,,,,,,,,,masks/mask_003.jpg,,,,,,,,,,,,,,,,,,,,,,,,,,,,,,,,,,,,,,,,,,,,,,,,0,4,4,2,1,,,,,,,,,,,,,,,,,,,,,,,,,,,,,,,,,,,,,,,,,
960382,001,2022-11-20_17h55.32.249,Info_measure_main_exp,2022.2.2,Win32,47.65308554,,,,,,,,,,,,,,,,,,,,,,,,,,,,,,3,1.8305,1,,,,,,,,,,,,0,131,5,5,2250,2142,absent_patch/patch0002250.jpg,absent_patch/patch0002142.jpg,,,,,,,,,,,,,,,,,,,,-0.018700233,-0.127586223,1,0,0,response5disk,26,-0.001724122,0.002917748,1,0,0,center_square,0,25,25,71,1,,,,,,,,,,,,,,,,,,,,,,,
960382,001,2022-11-20_17h55.32.249,Info_measure_main_exp,2022.2.2,Win32,47.65308554,,,,,,,,,,,,,,,,,,masks/mask_001.jpg,,,,,,,,,,,,,,,,,,,,,,,,,,,,,,,,,,,,,,,,,,,0,0,0,0,1,,,,,,,,,,,,,,,,,,,,,,,,,,,,,,,,,,,,,,,,,,,,,,
960382,001,2022-11-20_17h55.32.249,Info_measure_main_exp,2022.2.2,Win32,47.65308554,,,,,,,,,,,,,,,,,,masks/mask_003.jpg,,,,,,,,,,,,,,,,,,,,,,,,,,,,,,,,,,,,,,,,,,,0,1,1,2,1,,,,,,,,,,,,,,,,,,,,,,,,,,,,,,,,,,,,,,,,,,,,,,
960382,001,2022-11-20_17h55.32.249,Info_measure_main_exp,2022.2.2,Win32,47.65308554,,,,,,,,,,,,,,,,,,masks/mask_002.jpg,,,,,,,,,,,,,,,,,,,,,,,,,,,,,,,,,,,,,,,,,,,0,2,2,1,1,,,,,,,,,,,,,,,,,,,,,,,,,,,,,,,,,,,,,,,,,,,,,,
960382,001,2022-11-20_17h55.32.249,Info_measure_main_exp,2022.2.2,Win32,47.65308554,,,,,,,,,,,,,,,,,,masks/mask_005.jpg,,,,,,,,,,,,,,,,,,,,,,,,,,,,,,,,,,,,,,,,,,,0,3,3,4,1,,,,,,,,,,,,,,,,,,,,,,,,,,,,,,,,,,,,,,,,,,,,,,
960382,001,2022-11-20_17h55.32.249,Info_measure_main_exp,2022.2.2,Win32,47.65308554,,,,,,,,,,,,,,,,,,masks/mask_004.jpg,,,,,,,,,,,,,,,,,,,,,,,,,,,,,,,,,,,,,,,,,,,0,4,4,3,1,,,,,,,,,,,,,,,,,,,,,,,,,,,,,,,,,,,,,,,,,,,,,,
960382,001,2022-11-20_17h55.32.249,Info_measure_main_exp,2022.2.2,Win32,47.65308554,,,,,,,,,,,,,,,,,,masks/mask_004.jpg,,,,,,,,,,,,,,,,,,,,,,,,,,,,,,,,,,,,,,,,,,,,,,,,0,0,0,3,1,,,,,,,,,,,,,,,,,,,,,,,,,,,,,,,,,,,,,,,,,
960382,001,2022-11-20_17h55.32.249,Info_measure_main_exp,2022.2.2,Win32,47.65308554,,,,,,,,,,,,,,,,,,masks/mask_005.jpg,,,,,,,,,,,,,,,,,,,,,,,,,,,,,,,,,,,,,,,,,,,,,,,,0,1,1,4,1,,,,,,,,,,,,,,,,,,,,,,,,,,,,,,,,,,,,,,,,,
960382,001,2022-11-20_17h55.32.249,Info_measure_main_exp,2022.2.2,Win32,47.65308554,,,,,,,,,,,,,,,,,,masks/mask_002.jpg,,,,,,,,,,,,,,,,,,,,,,,,,,,,,,,,,,,,,,,,,,,,,,,,0,2,2,1,1,,,,,,,,,,,,,,,,,,,,,,,,,,,,,,,,,,,,,,,,,
960382,001,2022-11-20_17h55.32.249,Info_measure_main_exp,2022.2.2,Win32,47.65308554,,,,,,,,,,,,,,,,,,masks/mask_001.jpg,,,,,,,,,,,,,,,,,,,,,,,,,,,,,,,,,,,,,,,,,,,,,,,,0,3,3,0,1,,,,,,,,,,,,,,,,,,,,,,,,,,,,,,,,,,,,,,,,,
960382,001,2022-11-20_17h55.32.249,Info_measure_main_exp,2022.2.2,Win32,47.65308554,,,,,,,,,,,,,,,,,,masks/mask_003.jpg,,,,,,,,,,,,,,,,,,,,,,,,,,,,,,,,,,,,,,,,,,,,,,,,0,4,4,2,1,,,,,,,,,,,,,,,,,,,,,,,,,,,,,,,,,,,,,,,,,
960382,001,2022-11-20_17h55.32.249,Info_measure_main_exp,2022.2.2,Win32,47.65308554,,,,,,,,,,,,,,,,,,,,,,,,,,,,,,5,1.0813,1,,,,,,,,,,,,0,131,5,5,2178,1986,absent_patch/patch0002178.jpg,absent_patch/patch0001986.jpg,,,,,,,,,,,,,,,,,,,,0.12347485,-0.061803722,1,0,0,response3disk,27,0.002519926,0.001856756,1,0,0,center_square,0,26,26,46,1,,,,,,,,,,,,,,,,,,,,,,,
960382,001,2022-11-20_17h55.32.249,Info_measure_main_exp,2022.2.2,Win32,47.65308554,,,,,,,,,,,,,,,,,,masks/mask_004.jpg,,,,,,,,,,,,,,,,,,,,,,,,,,,,,,,,,,,,,,,,,,,0,0,0,3,1,,,,,,,,,,,,,,,,,,,,,,,,,,,,,,,,,,,,,,,,,,,,,,
960382,001,2022-11-20_17h55.32.249,Info_measure_main_exp,2022.2.2,Win32,47.65308554,,,,,,,,,,,,,,,,,,masks/mask_001.jpg,,,,,,,,,,,,,,,,,,,,,,,,,,,,,,,,,,,,,,,,,,,0,1,1,0,1,,,,,,,,,,,,,,,,,,,,,,,,,,,,,,,,,,,,,,,,,,,,,,
960382,001,2022-11-20_17h55.32.249,Info_measure_main_exp,2022.2.2,Win32,47.65308554,,,,,,,,,,,,,,,,,,masks/mask_005.jpg,,,,,,,,,,,,,,,,,,,,,,,,,,,,,,,,,,,,,,,,,,,0,2,2,4,1,,,,,,,,,,,,,,,,,,,,,,,,,,,,,,,,,,,,,,,,,,,,,,
960382,001,2022-11-20_17h55.32.249,Info_measure_main_exp,2022.2.2,Win32,47.65308554,,,,,,,,,,,,,,,,,,masks/mask_003.jpg,,,,,,,,,,,,,,,,,,,,,,,,,,,,,,,,,,,,,,,,,,,0,3,3,2,1,,,,,,,,,,,,,,,,,,,,,,,,,,,,,,,,,,,,,,,,,,,,,,
960382,001,2022-11-20_17h55.32.249,Info_measure_main_exp,2022.2.2,Win32,47.65308554,,,,,,,,,,,,,,,,,,masks/mask_002.jpg,,,,,,,,,,,,,,,,,,,,,,,,,,,,,,,,,,,,,,,,,,,0,4,4,1,1,,,,,,,,,,,,,,,,,,,,,,,,,,,,,,,,,,,,,,,,,,,,,,
960382,001,2022-11-20_17h55.32.249,Info_measure_main_exp,2022.2.2,Win32,47.65308554,,,,,,,,,,,,,,,,,,masks/mask_004.jpg,,,,,,,,,,,,,,,,,,,,,,,,,,,,,,,,,,,,,,,,,,,,,,,,0,0,0,3,1,,,,,,,,,,,,,,,,,,,,,,,,,,,,,,,,,,,,,,,,,
960382,001,2022-11-20_17h55.32.249,Info_measure_main_exp,2022.2.2,Win32,47.65308554,,,,,,,,,,,,,,,,,,masks/mask_005.jpg,,,,,,,,,,,,,,,,,,,,,,,,,,,,,,,,,,,,,,,,,,,,,,,,0,1,1,4,1,,,,,,,,,,,,,,,,,,,,,,,,,,,,,,,,,,,,,,,,,
960382,001,2022-11-20_17h55.32.249,Info_measure_main_exp,2022.2.2,Win32,47.65308554,,,,,,,,,,,,,,,,,,masks/mask_002.jpg,,,,,,,,,,,,,,,,,,,,,,,,,,,,,,,,,,,,,,,,,,,,,,,,0,2,2,1,1,,,,,,,,,,,,,,,,,,,,,,,,,,,,,,,,,,,,,,,,,
960382,001,2022-11-20_17h55.32.249,Info_measure_main_exp,2022.2.2,Win32,47.65308554,,,,,,,,,,,,,,,,,,masks/mask_001.jpg,,,,,,,,,,,,,,,,,,,,,,,,,,,,,,,,,,,,,,,,,,,,,,,,0,3,3,0,1,,,,,,,,,,,,,,,,,,,,,,,,,,,,,,,,,,,,,,,,,
960382,001,2022-11-20_17h55.32.249,Info_measure_main_exp,2022.2.2,Win32,47.65308554,,,,,,,,,,,,,,,,,,masks/mask_003.jpg,,,,,,,,,,,,,,,,,,,,,,,,,,,,,,,,,,,,,,,,,,,,,,,,0,4,4,2,1,,,,,,,,,,,,,,,,,,,,,,,,,,,,,,,,,,,,,,,,,
960382,001,2022-11-20_17h55.32.249,Info_measure_main_exp,2022.2.2,Win32,47.65308554,,,,,,,,,,,,,,,,,,,,,,,,,,,,,,4,1.7818,1,,,,,,,,,,,,0,131,5,5,2166,1986,absent_patch/patch0002166.jpg,absent_patch/patch0001986.jpg,,,,,,,,,,,,,,,,,,,,0.062997347,-0.1148542,1,0,0,response3disk,28,-0.003846105,-0.00132626,1,0,0,center_square,0,27,27,47,1,,,,,,,,,,,,,,,,,,,,,,,
960382,001,2022-11-20_17h55.32.249,Info_measure_main_exp,2022.2.2,Win32,47.65308554,,,,,,,,,,,,,,,,,,masks/mask_001.jpg,,,,,,,,,,,,,,,,,,,,,,,,,,,,,,,,,,,,,,,,,,,0,0,0,0,1,,,,,,,,,,,,,,,,,,,,,,,,,,,,,,,,,,,,,,,,,,,,,,
960382,001,2022-11-20_17h55.32.249,Info_measure_main_exp,2022.2.2,Win32,47.65308554,,,,,,,,,,,,,,,,,,masks/mask_003.jpg,,,,,,,,,,,,,,,,,,,,,,,,,,,,,,,,,,,,,,,,,,,0,1,1,2,1,,,,,,,,,,,,,,,,,,,,,,,,,,,,,,,,,,,,,,,,,,,,,,
960382,001,2022-11-20_17h55.32.249,Info_measure_main_exp,2022.2.2,Win32,47.65308554,,,,,,,,,,,,,,,,,,masks/mask_004.jpg,,,,,,,,,,,,,,,,,,,,,,,,,,,,,,,,,,,,,,,,,,,0,2,2,3,1,,,,,,,,,,,,,,,,,,,,,,,,,,,,,,,,,,,,,,,,,,,,,,
960382,001,2022-11-20_17h55.32.249,Info_measure_main_exp,2022.2.2,Win32,47.65308554,,,,,,,,,,,,,,,,,,masks/mask_005.jpg,,,,,,,,,,,,,,,,,,,,,,,,,,,,,,,,,,,,,,,,,,,0,3,3,4,1,,,,,,,,,,,,,,,,,,,,,,,,,,,,,,,,,,,,,,,,,,,,,,
960382,001,2022-11-20_17h55.32.249,Info_measure_main_exp,2022.2.2,Win32,47.65308554,,,,,,,,,,,,,,,,,,masks/mask_002.jpg,,,,,,,,,,,,,,,,,,,,,,,,,,,,,,,,,,,,,,,,,,,0,4,4,1,1,,,,,,,,,,,,,,,,,,,,,,,,,,,,,,,,,,,,,,,,,,,,,,
960382,001,2022-11-20_17h55.32.249,Info_measure_main_exp,2022.2.2,Win32,47.65308554,,,,,,,,,,,,,,,,,,masks/mask_005.jpg,,,,,,,,,,,,,,,,,,,,,,,,,,,,,,,,,,,,,,,,,,,,,,,,0,0,0,4,1,,,,,,,,,,,,,,,,,,,,,,,,,,,,,,,,,,,,,,,,,
960382,001,2022-11-20_17h55.32.249,Info_measure_main_exp,2022.2.2,Win32,47.65308554,,,,,,,,,,,,,,,,,,masks/mask_001.jpg,,,,,,,,,,,,,,,,,,,,,,,,,,,,,,,,,,,,,,,,,,,,,,,,0,1,1,0,1,,,,,,,,,,,,,,,,,,,,,,,,,,,,,,,,,,,,,,,,,
960382,001,2022-11-20_17h55.32.249,Info_measure_main_exp,2022.2.2,Win32,47.65308554,,,,,,,,,,,,,,,,,,masks/mask_004.jpg,,,,,,,,,,,,,,,,,,,,,,,,,,,,,,,,,,,,,,,,,,,,,,,,0,2,2,3,1,,,,,,,,,,,,,,,,,,,,,,,,,,,,,,,,,,,,,,,,,
960382,001,2022-11-20_17h55.32.249,Info_measure_main_exp,2022.2.2,Win32,47.65308554,,,,,,,,,,,,,,,,,,masks/mask_002.jpg,,,,,,,,,,,,,,,,,,,,,,,,,,,,,,,,,,,,,,,,,,,,,,,,0,3,3,1,1,,,,,,,,,,,,,,,,,,,,,,,,,,,,,,,,,,,,,,,,,
960382,001,2022-11-20_17h55.32.249,Info_measure_main_exp,2022.2.2,Win32,47.65308554,,,,,,,,,,,,,,,,,,masks/mask_003.jpg,,,,,,,,,,,,,,,,,,,,,,,,,,,,,,,,,,,,,,,,,,,,,,,,0,4,4,2,1,,,,,,,,,,,,,,,,,,,,,,,,,,,,,,,,,,,,,,,,,
960382,001,2022-11-20_17h55.32.249,Info_measure_main_exp,2022.2.2,Win32,47.65308554,,,,,,,,,,,,,,,,,,,,,,,,,,,,,,0,0.9783,1,,,,,,,,,,,,1,131,5,5,1,1,present_patch/cong_131_5_a.jpg,present_patch/cong_131_5_a.jpg,,,,,,,,,,,,,,,,,,,,-0.095092854,0.176923069,1,0,0,response7disk,29,-0.004907178,-0.010875348,1,0,0,center_square,0,28,28,30,1,,,,,,,,,,,,,,,,,,,,,,,
960382,001,2022-11-20_17h55.32.249,Info_measure_main_exp,2022.2.2,Win32,47.65308554,,,,,,,,,,,,,,,,,,masks/mask_005.jpg,,,,,,,,,,,,,,,,,,,,,,,,,,,,,,,,,,,,,,,,,,,0,0,0,4,1,,,,,,,,,,,,,,,,,,,,,,,,,,,,,,,,,,,,,,,,,,,,,,
960382,001,2022-11-20_17h55.32.249,Info_measure_main_exp,2022.2.2,Win32,47.65308554,,,,,,,,,,,,,,,,,,masks/mask_003.jpg,,,,,,,,,,,,,,,,,,,,,,,,,,,,,,,,,,,,,,,,,,,0,1,1,2,1,,,,,,,,,,,,,,,,,,,,,,,,,,,,,,,,,,,,,,,,,,,,,,
960382,001,2022-11-20_17h55.32.249,Info_measure_main_exp,2022.2.2,Win32,47.65308554,,,,,,,,,,,,,,,,,,masks/mask_001.jpg,,,,,,,,,,,,,,,,,,,,,,,,,,,,,,,,,,,,,,,,,,,0,2,2,0,1,,,,,,,,,,,,,,,,,,,,,,,,,,,,,,,,,,,,,,,,,,,,,,
960382,001,2022-11-20_17h55.32.249,Info_measure_main_exp,2022.2.2,Win32,47.65308554,,,,,,,,,,,,,,,,,,masks/mask_002.jpg,,,,,,,,,,,,,,,,,,,,,,,,,,,,,,,,,,,,,,,,,,,0,3,3,1,1,,,,,,,,,,,,,,,,,,,,,,,,,,,,,,,,,,,,,,,,,,,,,,
960382,001,2022-11-20_17h55.32.249,Info_measure_main_exp,2022.2.2,Win32,47.65308554,,,,,,,,,,,,,,,,,,masks/mask_004.jpg,,,,,,,,,,,,,,,,,,,,,,,,,,,,,,,,,,,,,,,,,,,0,4,4,3,1,,,,,,,,,,,,,,,,,,,,,,,,,,,,,,,,,,,,,,,,,,,,,,
960382,001,2022-11-20_17h55.32.249,Info_measure_main_exp,2022.2.2,Win32,47.65308554,,,,,,,,,,,,,,,,,,masks/mask_005.jpg,,,,,,,,,,,,,,,,,,,,,,,,,,,,,,,,,,,,,,,,,,,,,,,,0,0,0,4,1,,,,,,,,,,,,,,,,,,,,,,,,,,,,,,,,,,,,,,,,,
960382,001,2022-11-20_17h55.32.249,Info_measure_main_exp,2022.2.2,Win32,47.65308554,,,,,,,,,,,,,,,,,,masks/mask_004.jpg,,,,,,,,,,,,,,,,,,,,,,,,,,,,,,,,,,,,,,,,,,,,,,,,0,1,1,3,1,,,,,,,,,,,,,,,,,,,,,,,,,,,,,,,,,,,,,,,,,
960382,001,2022-11-20_17h55.32.249,Info_measure_main_exp,2022.2.2,Win32,47.65308554,,,,,,,,,,,,,,,,,,masks/mask_002.jpg,,,,,,,,,,,,,,,,,,,,,,,,,,,,,,,,,,,,,,,,,,,,,,,,0,2,2,1,1,,,,,,,,,,,,,,,,,,,,,,,,,,,,,,,,,,,,,,,,,
960382,001,2022-11-20_17h55.32.249,Info_measure_main_exp,2022.2.2,Win32,47.65308554,,,,,,,,,,,,,,,,,,masks/mask_003.jpg,,,,,,,,,,,,,,,,,,,,,,,,,,,,,,,,,,,,,,,,,,,,,,,,0,3,3,2,1,,,,,,,,,,,,,,,,,,,,,,,,,,,,,,,,,,,,,,,,,
960382,001,2022-11-20_17h55.32.249,Info_measure_main_exp,2022.2.2,Win32,47.65308554,,,,,,,,,,,,,,,,,,masks/mask_001.jpg,,,,,,,,,,,,,,,,,,,,,,,,,,,,,,,,,,,,,,,,,,,,,,,,0,4,4,0,1,,,,,,,,,,,,,,,,,,,,,,,,,,,,,,,,,,,,,,,,,
960382,001,2022-11-20_17h55.32.249,Info_measure_main_exp,2022.2.2,Win32,47.65308554,,,,,,,,,,,,,,,,,,,,,,,,,,,,,,0,0.8937,1,,,,,,,,,,,,0,131,5,5,2154,2154,absent_patch/patch0002154.jpg,absent_patch/patch0002154.jpg,,,,,,,,,,,,,,,,,,,,-0.069628647,0.181167097,1,0,0,response7disk,30,-0.00596817,-0.002387292,1,0,0,center_square,0,29,29,89,1,,,,,,,,,,,,,,,,,,,,,,,
960382,001,2022-11-20_17h55.32.249,Info_measure_main_exp,2022.2.2,Win32,47.65308554,,,,,,,,,,,,,,,,,,masks/mask_002.jpg,,,,,,,,,,,,,,,,,,,,,,,,,,,,,,,,,,,,,,,,,,,0,0,0,1,1,,,,,,,,,,,,,,,,,,,,,,,,,,,,,,,,,,,,,,,,,,,,,,
960382,001,2022-11-20_17h55.32.249,Info_measure_main_exp,2022.2.2,Win32,47.65308554,,,,,,,,,,,,,,,,,,masks/mask_003.jpg,,,,,,,,,,,,,,,,,,,,,,,,,,,,,,,,,,,,,,,,,,,0,1,1,2,1,,,,,,,,,,,,,,,,,,,,,,,,,,,,,,,,,,,,,,,,,,,,,,
960382,001,2022-11-20_17h55.32.249,Info_measure_main_exp,2022.2.2,Win32,47.65308554,,,,,,,,,,,,,,,,,,masks/mask_004.jpg,,,,,,,,,,,,,,,,,,,,,,,,,,,,,,,,,,,,,,,,,,,0,2,2,3,1,,,,,,,,,,,,,,,,,,,,,,,,,,,,,,,,,,,,,,,,,,,,,,
960382,001,2022-11-20_17h55.32.249,Info_measure_main_exp,2022.2.2,Win32,47.65308554,,,,,,,,,,,,,,,,,,masks/mask_005.jpg,,,,,,,,,,,,,,,,,,,,,,,,,,,,,,,,,,,,,,,,,,,0,3,3,4,1,,,,,,,,,,,,,,,,,,,,,,,,,,,,,,,,,,,,,,,,,,,,,,
960382,001,2022-11-20_17h55.32.249,Info_measure_main_exp,2022.2.2,Win32,47.65308554,,,,,,,,,,,,,,,,,,masks/mask_001.jpg,,,,,,,,,,,,,,,,,,,,,,,,,,,,,,,,,,,,,,,,,,,0,4,4,0,1,,,,,,,,,,,,,,,,,,,,,,,,,,,,,,,,,,,,,,,,,,,,,,
960382,001,2022-11-20_17h55.32.249,Info_measure_main_exp,2022.2.2,Win32,47.65308554,,,,,,,,,,,,,,,,,,masks/mask_001.jpg,,,,,,,,,,,,,,,,,,,,,,,,,,,,,,,,,,,,,,,,,,,,,,,,0,0,0,0,1,,,,,,,,,,,,,,,,,,,,,,,,,,,,,,,,,,,,,,,,,
960382,001,2022-11-20_17h55.32.249,Info_measure_main_exp,2022.2.2,Win32,47.65308554,,,,,,,,,,,,,,,,,,masks/mask_005.jpg,,,,,,,,,,,,,,,,,,,,,,,,,,,,,,,,,,,,,,,,,,,,,,,,0,1,1,4,1,,,,,,,,,,,,,,,,,,,,,,,,,,,,,,,,,,,,,,,,,
960382,001,2022-11-20_17h55.32.249,Info_measure_main_exp,2022.2.2,Win32,47.65308554,,,,,,,,,,,,,,,,,,masks/mask_002.jpg,,,,,,,,,,,,,,,,,,,,,,,,,,,,,,,,,,,,,,,,,,,,,,,,0,2,2,1,1,,,,,,,,,,,,,,,,,,,,,,,,,,,,,,,,,,,,,,,,,
960382,001,2022-11-20_17h55.32.249,Info_measure_main_exp,2022.2.2,Win32,47.65308554,,,,,,,,,,,,,,,,,,masks/mask_003.jpg,,,,,,,,,,,,,,,,,,,,,,,,,,,,,,,,,,,,,,,,,,,,,,,,0,3,3,2,1,,,,,,,,,,,,,,,,,,,,,,,,,,,,,,,,,,,,,,,,,
960382,001,2022-11-20_17h55.32.249,Info_measure_main_exp,2022.2.2,Win32,47.65308554,,,,,,,,,,,,,,,,,,masks/mask_004.jpg,,,,,,,,,,,,,,,,,,,,,,,,,,,,,,,,,,,,,,,,,,,,,,,,0,4,4,3,1,,,,,,,,,,,,,,,,,,,,,,,,,,,,,,,,,,,,,,,,,
960382,001,2022-11-20_17h55.32.249,Info_measure_main_exp,2022.2.2,Win32,47.65308554,,,,,,,,,,,,,,,,,,,,,,,,,,,,,,4,1.8275,1,,,,,,,,,,,,0,131,5,5,2298,2142,absent_patch/patch0002298.jpg,absent_patch/patch0002142.jpg,,,,,,,,,,,,,,,,,,,,0.018435046,-0.103183048,1,0,0,response3disk,31,-0.01127321,0.005039772,1,0,0,center_square,0,30,30,49,1,,,,,,,,,,,,,,,,,,,,,,,
960382,001,2022-11-20_17h55.32.249,Info_measure_main_exp,2022.2.2,Win32,47.65308554,,,,,,,,,,,,,,,,,,masks/mask_003.jpg,,,,,,,,,,,,,,,,,,,,,,,,,,,,,,,,,,,,,,,,,,,0,0,0,2,1,,,,,,,,,,,,,,,,,,,,,,,,,,,,,,,,,,,,,,,,,,,,,,
960382,001,2022-11-20_17h55.32.249,Info_measure_main_exp,2022.2.2,Win32,47.65308554,,,,,,,,,,,,,,,,,,masks/mask_001.jpg,,,,,,,,,,,,,,,,,,,,,,,,,,,,,,,,,,,,,,,,,,,0,1,1,0,1,,,,,,,,,,,,,,,,,,,,,,,,,,,,,,,,,,,,,,,,,,,,,,
960382,001,2022-11-20_17h55.32.249,Info_measure_main_exp,2022.2.2,Win32,47.65308554,,,,,,,,,,,,,,,,,,masks/mask_002.jpg,,,,,,,,,,,,,,,,,,,,,,,,,,,,,,,,,,,,,,,,,,,0,2,2,1,1,,,,,,,,,,,,,,,,,,,,,,,,,,,,,,,,,,,,,,,,,,,,,,
960382,001,2022-11-20_17h55.32.249,Info_measure_main_exp,2022.2.2,Win32,47.65308554,,,,,,,,,,,,,,,,,,masks/mask_004.jpg,,,,,,,,,,,,,,,,,,,,,,,,,,,,,,,,,,,,,,,,,,,0,3,3,3,1,,,,,,,,,,,,,,,,,,,,,,,,,,,,,,,,,,,,,,,,,,,,,,
960382,001,2022-11-20_17h55.32.249,Info_measure_main_exp,2022.2.2,Win32,47.65308554,,,,,,,,,,,,,,,,,,masks/mask_005.jpg,,,,,,,,,,,,,,,,,,,,,,,,,,,,,,,,,,,,,,,,,,,0,4,4,4,1,,,,,,,,,,,,,,,,,,,,,,,,,,,,,,,,,,,,,,,,,,,,,,
960382,001,2022-11-20_17h55.32.249,Info_measure_main_exp,2022.2.2,Win32,47.65308554,,,,,,,,,,,,,,,,,,masks/mask_005.jpg,,,,,,,,,,,,,,,,,,,,,,,,,,,,,,,,,,,,,,,,,,,,,,,,0,0,0,4,1,,,,,,,,,,,,,,,,,,,,,,,,,,,,,,,,,,,,,,,,,
960382,001,2022-11-20_17h55.32.249,Info_measure_main_exp,2022.2.2,Win32,47.65308554,,,,,,,,,,,,,,,,,,masks/mask_004.jpg,,,,,,,,,,,,,,,,,,,,,,,,,,,,,,,,,,,,,,,,,,,,,,,,0,1,1,3,1,,,,,,,,,,,,,,,,,,,,,,,,,,,,,,,,,,,,,,,,,
960382,001,2022-11-20_17h55.32.249,Info_measure_main_exp,2022.2.2,Win32,47.65308554,,,,,,,,,,,,,,,,,,masks/mask_001.jpg,,,,,,,,,,,,,,,,,,,,,,,,,,,,,,,,,,,,,,,,,,,,,,,,0,2,2,0,1,,,,,,,,,,,,,,,,,,,,,,,,,,,,,,,,,,,,,,,,,
960382,001,2022-11-20_17h55.32.249,Info_measure_main_exp,2022.2.2,Win32,47.65308554,,,,,,,,,,,,,,,,,,masks/mask_003.jpg,,,,,,,,,,,,,,,,,,,,,,,,,,,,,,,,,,,,,,,,,,,,,,,,0,3,3,2,1,,,,,,,,,,,,,,,,,,,,,,,,,,,,,,,,,,,,,,,,,
960382,001,2022-11-20_17h55.32.249,Info_measure_main_exp,2022.2.2,Win32,47.65308554,,,,,,,,,,,,,,,,,,masks/mask_002.jpg,,,,,,,,,,,,,,,,,,,,,,,,,,,,,,,,,,,,,,,,,,,,,,,,0,4,4,1,1,,,,,,,,,,,,,,,,,,,,,,,,,,,,,,,,,,,,,,,,,
960382,001,2022-11-20_17h55.32.249,Info_measure_main_exp,2022.2.2,Win32,47.65308554,,,,,,,,,,,,,,,,,,,,,,,,,,,,,,6,1.6246,1,,,,,,,,,,,,0,131,5,5,2154,1974,absent_patch/patch0002154.jpg,absent_patch/patch0001974.jpg,,,,,,,,,,,,,,,,,,,,0.085278498,0.022015923,1,0,0,response1disk,32,0.000397862,-0.00132626,1,0,0,center_square,0,31,31,82,1,,,,,,,,,,,,,,,,,,,,,,,
960382,001,2022-11-20_17h55.32.249,Info_measure_main_exp,2022.2.2,Win32,47.65308554,,,,,,,,,,,,,,,,,,masks/mask_004.jpg,,,,,,,,,,,,,,,,,,,,,,,,,,,,,,,,,,,,,,,,,,,0,0,0,3,1,,,,,,,,,,,,,,,,,,,,,,,,,,,,,,,,,,,,,,,,,,,,,,
960382,001,2022-11-20_17h55.32.249,Info_measure_main_exp,2022.2.2,Win32,47.65308554,,,,,,,,,,,,,,,,,,masks/mask_003.jpg,,,,,,,,,,,,,,,,,,,,,,,,,,,,,,,,,,,,,,,,,,,0,1,1,2,1,,,,,,,,,,,,,,,,,,,,,,,,,,,,,,,,,,,,,,,,,,,,,,
960382,001,2022-11-20_17h55.32.249,Info_measure_main_exp,2022.2.2,Win32,47.65308554,,,,,,,,,,,,,,,,,,masks/mask_001.jpg,,,,,,,,,,,,,,,,,,,,,,,,,,,,,,,,,,,,,,,,,,,0,2,2,0,1,,,,,,,,,,,,,,,,,,,,,,,,,,,,,,,,,,,,,,,,,,,,,,
960382,001,2022-11-20_17h55.32.249,Info_measure_main_exp,2022.2.2,Win32,47.65308554,,,,,,,,,,,,,,,,,,masks/mask_002.jpg,,,,,,,,,,,,,,,,,,,,,,,,,,,,,,,,,,,,,,,,,,,0,3,3,1,1,,,,,,,,,,,,,,,,,,,,,,,,,,,,,,,,,,,,,,,,,,,,,,
960382,001,2022-11-20_17h55.32.249,Info_measure_main_exp,2022.2.2,Win32,47.65308554,,,,,,,,,,,,,,,,,,masks/mask_005.jpg,,,,,,,,,,,,,,,,,,,,,,,,,,,,,,,,,,,,,,,,,,,0,4,4,4,1,,,,,,,,,,,,,,,,,,,,,,,,,,,,,,,,,,,,,,,,,,,,,,
960382,001,2022-11-20_17h55.32.249,Info_measure_main_exp,2022.2.2,Win32,47.65308554,,,,,,,,,,,,,,,,,,masks/mask_003.jpg,,,,,,,,,,,,,,,,,,,,,,,,,,,,,,,,,,,,,,,,,,,,,,,,0,0,0,2,1,,,,,,,,,,,,,,,,,,,,,,,,,,,,,,,,,,,,,,,,,
960382,001,2022-11-20_17h55.32.249,Info_measure_main_exp,2022.2.2,Win32,47.65308554,,,,,,,,,,,,,,,,,,masks/mask_005.jpg,,,,,,,,,,,,,,,,,,,,,,,,,,,,,,,,,,,,,,,,,,,,,,,,0,1,1,4,1,,,,,,,,,,,,,,,,,,,,,,,,,,,,,,,,,,,,,,,,,
960382,001,2022-11-20_17h55.32.249,Info_measure_main_exp,2022.2.2,Win32,47.65308554,,,,,,,,,,,,,,,,,,masks/mask_001.jpg,,,,,,,,,,,,,,,,,,,,,,,,,,,,,,,,,,,,,,,,,,,,,,,,0,2,2,0,1,,,,,,,,,,,,,,,,,,,,,,,,,,,,,,,,,,,,,,,,,
960382,001,2022-11-20_17h55.32.249,Info_measure_main_exp,2022.2.2,Win32,47.65308554,,,,,,,,,,,,,,,,,,masks/mask_002.jpg,,,,,,,,,,,,,,,,,,,,,,,,,,,,,,,,,,,,,,,,,,,,,,,,0,3,3,1,1,,,,,,,,,,,,,,,,,,,,,,,,,,,,,,,,,,,,,,,,,
960382,001,2022-11-20_17h55.32.249,Info_measure_main_exp,2022.2.2,Win32,47.65308554,,,,,,,,,,,,,,,,,,masks/mask_004.jpg,,,,,,,,,,,,,,,,,,,,,,,,,,,,,,,,,,,,,,,,,,,,,,,,0,4,4,3,1,,,,,,,,,,,,,,,,,,,,,,,,,,,,,,,,,,,,,,,,,
960382,001,2022-11-20_17h55.32.249,Info_measure_main_exp,2022.2.2,Win32,47.65308554,,,,,,,,,,,,,,,,,,,,,,,,,,,,,,0,1.0221,1,,,,,,,,,,,,0,131,5,5,2190,2190,absent_patch/patch0002190.jpg,absent_patch/patch0002190.jpg,,,,,,,,,,,,,,,,,,,,-0.052652536,0.168435013,1,0,0,response7disk,33,-0.00066313,0.008222787,1,0,0,center_square,0,32,32,86,1,,,,,,,,,,,,,,,,,,,,,,,
960382,001,2022-11-20_17h55.32.249,Info_measure_main_exp,2022.2.2,Win32,47.65308554,,,,,,,,,,,,,,,,,,masks/mask_005.jpg,,,,,,,,,,,,,,,,,,,,,,,,,,,,,,,,,,,,,,,,,,,0,0,0,4,1,,,,,,,,,,,,,,,,,,,,,,,,,,,,,,,,,,,,,,,,,,,,,,
960382,001,2022-11-20_17h55.32.249,Info_measure_main_exp,2022.2.2,Win32,47.65308554,,,,,,,,,,,,,,,,,,masks/mask_002.jpg,,,,,,,,,,,,,,,,,,,,,,,,,,,,,,,,,,,,,,,,,,,0,1,1,1,1,,,,,,,,,,,,,,,,,,,,,,,,,,,,,,,,,,,,,,,,,,,,,,
960382,001,2022-11-20_17h55.32.249,Info_measure_main_exp,2022.2.2,Win32,47.65308554,,,,,,,,,,,,,,,,,,masks/mask_001.jpg,,,,,,,,,,,,,,,,,,,,,,,,,,,,,,,,,,,,,,,,,,,0,2,2,0,1,,,,,,,,,,,,,,,,,,,,,,,,,,,,,,,,,,,,,,,,,,,,,,
960382,001,2022-11-20_17h55.32.249,Info_measure_main_exp,2022.2.2,Win32,47.65308554,,,,,,,,,,,,,,,,,,masks/mask_003.jpg,,,,,,,,,,,,,,,,,,,,,,,,,,,,,,,,,,,,,,,,,,,0,3,3,2,1,,,,,,,,,,,,,,,,,,,,,,,,,,,,,,,,,,,,,,,,,,,,,,
960382,001,2022-11-20_17h55.32.249,Info_measure_main_exp,2022.2.2,Win32,47.65308554,,,,,,,,,,,,,,,,,,masks/mask_004.jpg,,,,,,,,,,,,,,,,,,,,,,,,,,,,,,,,,,,,,,,,,,,0,4,4,3,1,,,,,,,,,,,,,,,,,,,,,,,,,,,,,,,,,,,,,,,,,,,,,,
960382,001,2022-11-20_17h55.32.249,Info_measure_main_exp,2022.2.2,Win32,47.65308554,,,,,,,,,,,,,,,,,,masks/mask_003.jpg,,,,,,,,,,,,,,,,,,,,,,,,,,,,,,,,,,,,,,,,,,,,,,,,0,0,0,2,1,,,,,,,,,,,,,,,,,,,,,,,,,,,,,,,,,,,,,,,,,
960382,001,2022-11-20_17h55.32.249,Info_measure_main_exp,2022.2.2,Win32,47.65308554,,,,,,,,,,,,,,,,,,masks/mask_005.jpg,,,,,,,,,,,,,,,,,,,,,,,,,,,,,,,,,,,,,,,,,,,,,,,,0,1,1,4,1,,,,,,,,,,,,,,,,,,,,,,,,,,,,,,,,,,,,,,,,,
960382,001,2022-11-20_17h55.32.249,Info_measure_main_exp,2022.2.2,Win32,47.65308554,,,,,,,,,,,,,,,,,,masks/mask_001.jpg,,,,,,,,,,,,,,,,,,,,,,,,,,,,,,,,,,,,,,,,,,,,,,,,0,2,2,0,1,,,,,,,,,,,,,,,,,,,,,,,,,,,,,,,,,,,,,,,,,
960382,001,2022-11-20_17h55.32.249,Info_measure_main_exp,2022.2.2,Win32,47.65308554,,,,,,,,,,,,,,,,,,masks/mask_002.jpg,,,,,,,,,,,,,,,,,,,,,,,,,,,,,,,,,,,,,,,,,,,,,,,,0,3,3,1,1,,,,,,,,,,,,,,,,,,,,,,,,,,,,,,,,,,,,,,,,,
960382,001,2022-11-20_17h55.32.249,Info_measure_main_exp,2022.2.2,Win32,47.65308554,,,,,,,,,,,,,,,,,,masks/mask_004.jpg,,,,,,,,,,,,,,,,,,,,,,,,,,,,,,,,,,,,,,,,,,,,,,,,0,4,4,3,1,,,,,,,,,,,,,,,,,,,,,,,,,,,,,,,,,,,,,,,,,
960382,001,2022-11-20_17h55.32.249,Info_measure_main_exp,2022.2.2,Win32,47.65308554,,,,,,,,,,,,,,,,,,,,,,,,,,,,,,3,1.6962,1,,,,,,,,,,,,0,131,5,5,1950,2142,absent_patch/patch0001950.jpg,absent_patch/patch0002142.jpg,,,,,,,,,,,,,,,,,,,,-0.010212218,-0.06074273,1,0,0,response5disk,34,-0.004907178,-0.000265268,1,0,0,center_square,0,33,33,83,1,,,,,,,,,,,,,,,,,,,,,,,
960382,001,2022-11-20_17h55.32.249,Info_measure_main_exp,2022.2.2,Win32,47.65308554,,,,,,,,,,,,,,,,,,masks/mask_004.jpg,,,,,,,,,,,,,,,,,,,,,,,,,,,,,,,,,,,,,,,,,,,0,0,0,3,1,,,,,,,,,,,,,,,,,,,,,,,,,,,,,,,,,,,,,,,,,,,,,,
960382,001,2022-11-20_17h55.32.249,Info_measure_main_exp,2022.2.2,Win32,47.65308554,,,,,,,,,,,,,,,,,,masks/mask_003.jpg,,,,,,,,,,,,,,,,,,,,,,,,,,,,,,,,,,,,,,,,,,,0,1,1,2,1,,,,,,,,,,,,,,,,,,,,,,,,,,,,,,,,,,,,,,,,,,,,,,
960382,001,2022-11-20_17h55.32.249,Info_measure_main_exp,2022.2.2,Win32,47.65308554,,,,,,,,,,,,,,,,,,masks/mask_005.jpg,,,,,,,,,,,,,,,,,,,,,,,,,,,,,,,,,,,,,,,,,,,0,2,2,4,1,,,,,,,,,,,,,,,,,,,,,,,,,,,,,,,,,,,,,,,,,,,,,,
960382,001,2022-11-20_17h55.32.249,Info_measure_main_exp,2022.2.2,Win32,47.65308554,,,,,,,,,,,,,,,,,,masks/mask_001.jpg,,,,,,,,,,,,,,,,,,,,,,,,,,,,,,,,,,,,,,,,,,,0,3,3,0,1,,,,,,,,,,,,,,,,,,,,,,,,,,,,,,,,,,,,,,,,,,,,,,
960382,001,2022-11-20_17h55.32.249,Info_measure_main_exp,2022.2.2,Win32,47.65308554,,,,,,,,,,,,,,,,,,masks/mask_002.jpg,,,,,,,,,,,,,,,,,,,,,,,,,,,,,,,,,,,,,,,,,,,0,4,4,1,1,,,,,,,,,,,,,,,,,,,,,,,,,,,,,,,,,,,,,,,,,,,,,,
960382,001,2022-11-20_17h55.32.249,Info_measure_main_exp,2022.2.2,Win32,47.65308554,,,,,,,,,,,,,,,,,,masks/mask_003.jpg,,,,,,,,,,,,,,,,,,,,,,,,,,,,,,,,,,,,,,,,,,,,,,,,0,0,0,2,1,,,,,,,,,,,,,,,,,,,,,,,,,,,,,,,,,,,,,,,,,
960382,001,2022-11-20_17h55.32.249,Info_measure_main_exp,2022.2.2,Win32,47.65308554,,,,,,,,,,,,,,,,,,masks/mask_001.jpg,,,,,,,,,,,,,,,,,,,,,,,,,,,,,,,,,,,,,,,,,,,,,,,,0,1,1,0,1,,,,,,,,,,,,,,,,,,,,,,,,,,,,,,,,,,,,,,,,,
960382,001,2022-11-20_17h55.32.249,Info_measure_main_exp,2022.2.2,Win32,47.65308554,,,,,,,,,,,,,,,,,,masks/mask_004.jpg,,,,,,,,,,,,,,,,,,,,,,,,,,,,,,,,,,,,,,,,,,,,,,,,0,2,2,3,1,,,,,,,,,,,,,,,,,,,,,,,,,,,,,,,,,,,,,,,,,
960382,001,2022-11-20_17h55.32.249,Info_measure_main_exp,2022.2.2,Win32,47.65308554,,,,,,,,,,,,,,,,,,masks/mask_005.jpg,,,,,,,,,,,,,,,,,,,,,,,,,,,,,,,,,,,,,,,,,,,,,,,,0,3,3,4,1,,,,,,,,,,,,,,,,,,,,,,,,,,,,,,,,,,,,,,,,,
