participant,session,date,expName,psychopyVersion,OS,frameRate,space_press_continue.keys,space_press_continue.rt,space_press_continue_2.keys,space_press_continue_2.rt,space_press_continue_3.keys,space_press_continue_3.rt,space_press_continue_4.keys,space_press_continue_4.rt,space_press_continue_5.keys,space_press_continue_5.rt,space_press_continue_6.keys,space_press_continue_6.rt,prac_mask_loop_1.thisRepN,prac_mask_loop_1.thisTrialN,prac_mask_loop_1.thisN,prac_mask_loop_1.thisIndex,prac_mask_loop_1.ran,mask_name,prac_mask_loop_2.thisRepN,prac_mask_loop_2.thisTrialN,prac_mask_loop_2.thisN,prac_mask_loop_2.thisIndex,prac_mask_loop_2.ran,mouse_2.x,mouse_2.y,mouse_2.leftButton,mouse_2.midButton,mouse_2.rightButton,mouse_2.clicked_name,similarity,response_time,Pass,mouse_12.x,mouse_12.y,mouse_12.leftButton,mouse_12.midButton,mouse_12.rightButton,mouse_12.clicked_name,prac_loop.thisRepN,prac_loop.thisTrialN,prac_loop.thisN,prac_loop.thisIndex,prac_loop.ran,Pair_type,Image_num,Patch_1_loc,Patch_2_loc,Patch_1_info,Patch_2_info,Patch_1_name,Patch_2_name,mouse_1.x,mouse_1.y,mouse_1.leftButton,mouse_1.midButton,mouse_1.rightButton,mouse_1.time,mouse_1.clicked_name,space_press_continue_7.keys,space_press_continue_7.rt,mask_loop.thisRepN,mask_loop.thisTrialN,mask_loop.thisN,mask_loop.thisIndex,mask_loop.ran,mask_loop_2.thisRepN,mask_loop_2.thisTrialN,mask_loop_2.thisN,mask_loop_2.thisIndex,mask_loop_2.ran,mouse.x,mouse.y,mouse.leftButton,mouse.midButton,mouse.rightButton,mouse.clicked_name,trialNumber,mouse_11.x,mouse_11.y,mouse_11.leftButton,mouse_11.midButton,mouse_11.rightButton,mouse_11.clicked_name,first_pass_loop.thisRepN,first_pass_loop.thisTrialN,first_pass_loop.thisN,first_pass_loop.thisIndex,first_pass_loop.ran,mask_loop_3.thisRepN,mask_loop_3.thisTrialN,mask_loop_3.thisN,mask_loop_3.thisIndex,mask_loop_3.ran,mask_loop_4.thisRepN,mask_loop_4.thisTrialN,mask_loop_4.thisN,mask_loop_4.thisIndex,mask_loop_4.ran,mouse_3.x,mouse_3.y,mouse_3.leftButton,mouse_3.midButton,mouse_3.rightButton,mouse_3.clicked_name,double_pass_loop.thisRepN,double_pass_loop.thisTrialN,double_pass_loop.thisN,double_pass_loop.thisIndex,double_pass_loop.ran,space_exit.keys,space_exit.rt
991761,001,2022-11-21_24h55.43.521,Info_measure_main_exp,2022.2.2,Win32,60.41200991,,,,,,,,,,,,,,,,,,,,,,,,,,,,,,,,,,,,,,,,,,,,,,,,,,,,,,,,,,,,,,,,,,,,,,,,,,,,,,,,,,,,,,,,,,,,,,,,,,,,,,,,,,,,,,,
991761,001,2022-11-21_24h55.43.521,Info_measure_main_exp,2022.2.2,Win32,60.41200991,,,,,,,,,,,,,,,,,,,,,,,,,,,,,,,,,,,,,,,,,,,,,,,,,,,,,,,,,,,,,,,,,,,,,,,,,,,,,,,,,,,,,,,,,,,,,,,,,,,,,,,,,,,,,,,
991761,001,2022-11-21_24h55.43.521,Info_measure_main_exp,2022.2.2,Win32,60.41200991,space,5.1777,,,,,,,,,,,,,,,,,,,,,,,,,,,,,,,,,,,,,,,,,,,,,,,,,,,,,,,,,,,,,,,,,,,,,,,,,,,,,,,,,,,,,,,,,,,,,,,,,,,,,,,,,,,,,
991761,001,2022-11-21_24h55.43.521,Info_measure_main_exp,2022.2.2,Win32,60.41200991,,,space,69.8815,,,,,,,,,,,,,,,,,,,,,,,,,,,,,,,,,,,,,,,,,,,,,,,,,,,,,,,,,,,,,,,,,,,,,,,,,,,,,,,,,,,,,,,,,,,,,,,,,,,,,,,,,,,
991761,001,2022-11-21_24h55.43.521,Info_measure_main_exp,2022.2.2,Win32,60.41200991,,,,,space,9.5098,,,,,,,,,,,,,,,,,,,,,,,,,,,,,,,,,,,,,,,,,,,,,,,,,,,,,,,,,,,,,,,,,,,,,,,,,,,,,,,,,,,,,,,,,,,,,,,,,,,,,,,,,
991761,001,2022-11-21_24h55.43.521,Info_measure_main_exp,2022.2.2,Win32,60.41200991,,,,,,,space,2524.1238,,,,,,,,,,,,,,,,,,,,,,,,,,,,,,,,,,,,,,,,,,,,,,,,,,,,,,,,,,,,,,,,,,,,,,,,,,,,,,,,,,,,,,,,,,,,,,,,,,,,,,,
991761,001,2022-11-21_24h55.43.521,Info_measure_main_exp,2022.2.2,Win32,60.41200991,,,,,,,,,space,6.0468,,,,,,,,,,,,,,,,,,,,,,,,,,,,,,,,,,,,,,,,,,,,,,,,,,,,,,,,,,,,,,,,,,,,,,,,,,,,,,,,,,,,,,,,,,,,,,,,,,,,,
991761,001,2022-11-21_24h55.43.521,Info_measure_main_exp,2022.2.2,Win32,60.41200991,,,,,,,,,,,space,5.6191,,,,,,,,,,,,,,,,,,,,,,,,,,,,,,,,,,,,,,,,,,,,,,,,,,,,,,,,,,,,,,,,,,,,,,,,,,,,,,,,,,,,,,,,,,,,,,,,,,,
991761,001,2022-11-21_24h55.43.521,Info_measure_main_exp,2022.2.2,Win32,60.41200991,,,,,,,,,,,,,0,0,0,3,1,masks/mask_004.jpg,,,,,,,,,,,,,,,,,,,,,,,,,,,,,,,,,,,,,,,,,,,,,,,,,,,,,,,,,,,,,,,,,,,,,,,,,,,,,,,,,,,,,,,,,,,,,
991761,001,2022-11-21_24h55.43.521,Info_measure_main_exp,2022.2.2,Win32,60.41200991,,,,,,,,,,,,,0,1,1,1,1,masks/mask_002.jpg,,,,,,,,,,,,,,,,,,,,,,,,,,,,,,,,,,,,,,,,,,,,,,,,,,,,,,,,,,,,,,,,,,,,,,,,,,,,,,,,,,,,,,,,,,,,,
991761,001,2022-11-21_24h55.43.521,Info_measure_main_exp,2022.2.2,Win32,60.41200991,,,,,,,,,,,,,0,2,2,2,1,masks/mask_003.jpg,,,,,,,,,,,,,,,,,,,,,,,,,,,,,,,,,,,,,,,,,,,,,,,,,,,,,,,,,,,,,,,,,,,,,,,,,,,,,,,,,,,,,,,,,,,,,
991761,001,2022-11-21_24h55.43.521,Info_measure_main_exp,2022.2.2,Win32,60.41200991,,,,,,,,,,,,,0,3,3,0,1,masks/mask_001.jpg,,,,,,,,,,,,,,,,,,,,,,,,,,,,,,,,,,,,,,,,,,,,,,,,,,,,,,,,,,,,,,,,,,,,,,,,,,,,,,,,,,,,,,,,,,,,,
991761,001,2022-11-21_24h55.43.521,Info_measure_main_exp,2022.2.2,Win32,60.41200991,,,,,,,,,,,,,0,4,4,4,1,masks/mask_005.jpg,,,,,,,,,,,,,,,,,,,,,,,,,,,,,,,,,,,,,,,,,,,,,,,,,,,,,,,,,,,,,,,,,,,,,,,,,,,,,,,,,,,,,,,,,,,,,
991761,001,2022-11-21_24h55.43.521,Info_measure_main_exp,2022.2.2,Win32,60.41200991,,,,,,,,,,,,,,,,,,masks/mask_004.jpg,0,0,0,3,1,,,,,,,,,,,,,,,,,,,,,,,,,,,,,,,,,,,,,,,,,,,,,,,,,,,,,,,,,,,,,,,,,,,,,,,,,,,,,,,,,,,,,,,,
991761,001,2022-11-21_24h55.43.521,Info_measure_main_exp,2022.2.2,Win32,60.41200991,,,,,,,,,,,,,,,,,,masks/mask_002.jpg,0,1,1,1,1,,,,,,,,,,,,,,,,,,,,,,,,,,,,,,,,,,,,,,,,,,,,,,,,,,,,,,,,,,,,,,,,,,,,,,,,,,,,,,,,,,,,,,,,
991761,001,2022-11-21_24h55.43.521,Info_measure_main_exp,2022.2.2,Win32,60.41200991,,,,,,,,,,,,,,,,,,masks/mask_005.jpg,0,2,2,4,1,,,,,,,,,,,,,,,,,,,,,,,,,,,,,,,,,,,,,,,,,,,,,,,,,,,,,,,,,,,,,,,,,,,,,,,,,,,,,,,,,,,,,,,,
991761,001,2022-11-21_24h55.43.521,Info_measure_main_exp,2022.2.2,Win32,60.41200991,,,,,,,,,,,,,,,,,,masks/mask_001.jpg,0,3,3,0,1,,,,,,,,,,,,,,,,,,,,,,,,,,,,,,,,,,,,,,,,,,,,,,,,,,,,,,,,,,,,,,,,,,,,,,,,,,,,,,,,,,,,,,,,
991761,001,2022-11-21_24h55.43.521,Info_measure_main_exp,2022.2.2,Win32,60.41200991,,,,,,,,,,,,,,,,,,masks/mask_003.jpg,0,4,4,2,1,,,,,,,,,,,,,,,,,,,,,,,,,,,,,,,,,,,,,,,,,,,,,,,,,,,,,,,,,,,,,,,,,,,,,,,,,,,,,,,,,,,,,,,,
991761,001,2022-11-21_24h55.43.521,Info_measure_main_exp,2022.2.2,Win32,60.41200991,,,,,,,,,,,,,,,,,,,,,,,,-0.109259217,-0.062037044,1,0,0,response5disk,2,2625.3012,1,-0.001851824,-0.002777771,1,0,0,center_square,0,0,0,1,1,0,131,5,5,2514,2490,prac_patch/patch0002514.jpg,prac_patch/patch0002490.jpg,,,,,,,,,,,,,,,,,,,,,,,,,,,,,,,,,,,,,,,,,,,,,,,,,,,,,,,,,,,,
991761,001,2022-11-21_24h55.43.521,Info_measure_main_exp,2022.2.2,Win32,60.41200991,,,,,,,,,,,,,0,0,0,0,1,masks/mask_001.jpg,,,,,,,,,,,,,,,,,,,,,,,,,,,,,,,,,,,,,,,,,,,,,,,,,,,,,,,,,,,,,,,,,,,,,,,,,,,,,,,,,,,,,,,,,,,,,
991761,001,2022-11-21_24h55.43.521,Info_measure_main_exp,2022.2.2,Win32,60.41200991,,,,,,,,,,,,,0,1,1,2,1,masks/mask_003.jpg,,,,,,,,,,,,,,,,,,,,,,,,,,,,,,,,,,,,,,,,,,,,,,,,,,,,,,,,,,,,,,,,,,,,,,,,,,,,,,,,,,,,,,,,,,,,,
991761,001,2022-11-21_24h55.43.521,Info_measure_main_exp,2022.2.2,Win32,60.41200991,,,,,,,,,,,,,0,2,2,4,1,masks/mask_005.jpg,,,,,,,,,,,,,,,,,,,,,,,,,,,,,,,,,,,,,,,,,,,,,,,,,,,,,,,,,,,,,,,,,,,,,,,,,,,,,,,,,,,,,,,,,,,,,
991761,001,2022-11-21_24h55.43.521,Info_measure_main_exp,2022.2.2,Win32,60.41200991,,,,,,,,,,,,,0,3,3,1,1,masks/mask_002.jpg,,,,,,,,,,,,,,,,,,,,,,,,,,,,,,,,,,,,,,,,,,,,,,,,,,,,,,,,,,,,,,,,,,,,,,,,,,,,,,,,,,,,,,,,,,,,,
991761,001,2022-11-21_24h55.43.521,Info_measure_main_exp,2022.2.2,Win32,60.41200991,,,,,,,,,,,,,0,4,4,3,1,masks/mask_004.jpg,,,,,,,,,,,,,,,,,,,,,,,,,,,,,,,,,,,,,,,,,,,,,,,,,,,,,,,,,,,,,,,,,,,,,,,,,,,,,,,,,,,,,,,,,,,,,
991761,001,2022-11-21_24h55.43.521,Info_measure_main_exp,2022.2.2,Win32,60.41200991,,,,,,,,,,,,,,,,,,masks/mask_004.jpg,0,0,0,3,1,,,,,,,,,,,,,,,,,,,,,,,,,,,,,,,,,,,,,,,,,,,,,,,,,,,,,,,,,,,,,,,,,,,,,,,,,,,,,,,,,,,,,,,,
991761,001,2022-11-21_24h55.43.521,Info_measure_main_exp,2022.2.2,Win32,60.41200991,,,,,,,,,,,,,,,,,,masks/mask_001.jpg,0,1,1,0,1,,,,,,,,,,,,,,,,,,,,,,,,,,,,,,,,,,,,,,,,,,,,,,,,,,,,,,,,,,,,,,,,,,,,,,,,,,,,,,,,,,,,,,,,
991761,001,2022-11-21_24h55.43.521,Info_measure_main_exp,2022.2.2,Win32,60.41200991,,,,,,,,,,,,,,,,,,masks/mask_002.jpg,0,2,2,1,1,,,,,,,,,,,,,,,,,,,,,,,,,,,,,,,,,,,,,,,,,,,,,,,,,,,,,,,,,,,,,,,,,,,,,,,,,,,,,,,,,,,,,,,,
991761,001,2022-11-21_24h55.43.521,Info_measure_main_exp,2022.2.2,Win32,60.41200991,,,,,,,,,,,,,,,,,,masks/mask_005.jpg,0,3,3,4,1,,,,,,,,,,,,,,,,,,,,,,,,,,,,,,,,,,,,,,,,,,,,,,,,,,,,,,,,,,,,,,,,,,,,,,,,,,,,,,,,,,,,,,,,
991761,001,2022-11-21_24h55.43.521,Info_measure_main_exp,2022.2.2,Win32,60.41200991,,,,,,,,,,,,,,,,,,masks/mask_003.jpg,0,4,4,2,1,,,,,,,,,,,,,,,,,,,,,,,,,,,,,,,,,,,,,,,,,,,,,,,,,,,,,,,,,,,,,,,,,,,,,,,,,,,,,,,,,,,,,,,,
991761,001,2022-11-21_24h55.43.521,Info_measure_main_exp,2022.2.2,Win32,60.41200991,,,,,,,,,,,,,,,,,,,,,,,,0.077777792,-0.037962984,1,0,0,response3disk,5,2638.6681,1,0.002777806,-0.000925947,1,0,0,center_square,0,1,1,0,1,0,131,5,5,2370,2406,prac_patch/patch0002370.jpg,prac_patch/patch0002406.jpg,,,,,,,,,,,,,,,,,,,,,,,,,,,,,,,,,,,,,,,,,,,,,,,,,,,,,,,,,,,,
991761,001,2022-11-21_24h55.43.521,Info_measure_main_exp,2022.2.2,Win32,60.41200991,,,,,,,,,,,,,0,0,0,0,1,masks/mask_001.jpg,,,,,,,,,,,,,,,,,,,,,,,,,,,,,,,,,,,,,,,,,,,,,,,,,,,,,,,,,,,,,,,,,,,,,,,,,,,,,,,,,,,,,,,,,,,,,
991761,001,2022-11-21_24h55.43.521,Info_measure_main_exp,2022.2.2,Win32,60.41200991,,,,,,,,,,,,,0,1,1,3,1,masks/mask_004.jpg,,,,,,,,,,,,,,,,,,,,,,,,,,,,,,,,,,,,,,,,,,,,,,,,,,,,,,,,,,,,,,,,,,,,,,,,,,,,,,,,,,,,,,,,,,,,,
991761,001,2022-11-21_24h55.43.521,Info_measure_main_exp,2022.2.2,Win32,60.41200991,,,,,,,,,,,,,0,2,2,4,1,masks/mask_005.jpg,,,,,,,,,,,,,,,,,,,,,,,,,,,,,,,,,,,,,,,,,,,,,,,,,,,,,,,,,,,,,,,,,,,,,,,,,,,,,,,,,,,,,,,,,,,,,
991761,001,2022-11-21_24h55.43.521,Info_measure_main_exp,2022.2.2,Win32,60.41200991,,,,,,,,,,,,,0,3,3,2,1,masks/mask_003.jpg,,,,,,,,,,,,,,,,,,,,,,,,,,,,,,,,,,,,,,,,,,,,,,,,,,,,,,,,,,,,,,,,,,,,,,,,,,,,,,,,,,,,,,,,,,,,,
991761,001,2022-11-21_24h55.43.521,Info_measure_main_exp,2022.2.2,Win32,60.41200991,,,,,,,,,,,,,0,4,4,1,1,masks/mask_002.jpg,,,,,,,,,,,,,,,,,,,,,,,,,,,,,,,,,,,,,,,,,,,,,,,,,,,,,,,,,,,,,,,,,,,,,,,,,,,,,,,,,,,,,,,,,,,,,
991761,001,2022-11-21_24h55.43.521,Info_measure_main_exp,2022.2.2,Win32,60.41200991,,,,,,,,,,,,,,,,,,masks/mask_004.jpg,0,0,0,3,1,,,,,,,,,,,,,,,,,,,,,,,,,,,,,,,,,,,,,,,,,,,,,,,,,,,,,,,,,,,,,,,,,,,,,,,,,,,,,,,,,,,,,,,,
991761,001,2022-11-21_24h55.43.521,Info_measure_main_exp,2022.2.2,Win32,60.41200991,,,,,,,,,,,,,,,,,,masks/mask_001.jpg,0,1,1,0,1,,,,,,,,,,,,,,,,,,,,,,,,,,,,,,,,,,,,,,,,,,,,,,,,,,,,,,,,,,,,,,,,,,,,,,,,,,,,,,,,,,,,,,,,
991761,001,2022-11-21_24h55.43.521,Info_measure_main_exp,2022.2.2,Win32,60.41200991,,,,,,,,,,,,,,,,,,masks/mask_002.jpg,0,2,2,1,1,,,,,,,,,,,,,,,,,,,,,,,,,,,,,,,,,,,,,,,,,,,,,,,,,,,,,,,,,,,,,,,,,,,,,,,,,,,,,,,,,,,,,,,,
991761,001,2022-11-21_24h55.43.521,Info_measure_main_exp,2022.2.2,Win32,60.41200991,,,,,,,,,,,,,,,,,,masks/mask_005.jpg,0,3,3,4,1,,,,,,,,,,,,,,,,,,,,,,,,,,,,,,,,,,,,,,,,,,,,,,,,,,,,,,,,,,,,,,,,,,,,,,,,,,,,,,,,,,,,,,,,
991761,001,2022-11-21_24h55.43.521,Info_measure_main_exp,2022.2.2,Win32,60.41200991,,,,,,,,,,,,,,,,,,masks/mask_003.jpg,0,4,4,2,1,,,,,,,,,,,,,,,,,,,,,,,,,,,,,,,,,,,,,,,,,,,,,,,,,,,,,,,,,,,,,,,,,,,,,,,,,,,,,,,,,,,,,,,,
991761,001,2022-11-21_24h55.43.521,Info_measure_main_exp,2022.2.2,Win32,60.41200991,,,,,,,,,,,,,,,,,,,,,,,,-0.145370342,0.071296303,1,0,0,response7disk,1,2649.2861,1,-0.001851824,0.003703683,1,0,0,center_square,0,2,2,2,1,0,131,5,5,2526,2526,prac_patch/patch0002526.jpg,prac_patch/patch0002526.jpg,,,,,,,,,,,,,,,,,,,,,,,,,,,,,,,,,,,,,,,,,,,,,,,,,,,,,,,,,,,,
991761,001,2022-11-21_24h55.43.521,Info_measure_main_exp,2022.2.2,Win32,60.41200991,,,,,,,,,,,,,,,,,,,,,,,,,,,,,,,,,,,,,,,,,,,,,,,,,,,,,,,,,,,space,2.5965,,,,,,,,,,,,,,,,,,,,,,,,,,,,,,,,,,,,,,,,,,,,,,,,,,,
991761,001,2022-11-21_24h55.43.521,Info_measure_main_exp,2022.2.2,Win32,60.41200991,,,,,,,,,,,,,,,,,,masks/mask_001.jpg,,,,,,,,,,,,,,,,,,,,,,,,,,,,,,,,,,,,,,,,,,,0,0,0,0,1,,,,,,,,,,,,,,,,,,,,,,,,,,,,,,,,,,,,,,,,,,,,,,
991761,001,2022-11-21_24h55.43.521,Info_measure_main_exp,2022.2.2,Win32,60.41200991,,,,,,,,,,,,,,,,,,masks/mask_002.jpg,,,,,,,,,,,,,,,,,,,,,,,,,,,,,,,,,,,,,,,,,,,0,1,1,1,1,,,,,,,,,,,,,,,,,,,,,,,,,,,,,,,,,,,,,,,,,,,,,,
991761,001,2022-11-21_24h55.43.521,Info_measure_main_exp,2022.2.2,Win32,60.41200991,,,,,,,,,,,,,,,,,,masks/mask_005.jpg,,,,,,,,,,,,,,,,,,,,,,,,,,,,,,,,,,,,,,,,,,,0,2,2,4,1,,,,,,,,,,,,,,,,,,,,,,,,,,,,,,,,,,,,,,,,,,,,,,
991761,001,2022-11-21_24h55.43.521,Info_measure_main_exp,2022.2.2,Win32,60.41200991,,,,,,,,,,,,,,,,,,masks/mask_004.jpg,,,,,,,,,,,,,,,,,,,,,,,,,,,,,,,,,,,,,,,,,,,0,3,3,3,1,,,,,,,,,,,,,,,,,,,,,,,,,,,,,,,,,,,,,,,,,,,,,,
991761,001,2022-11-21_24h55.43.521,Info_measure_main_exp,2022.2.2,Win32,60.41200991,,,,,,,,,,,,,,,,,,masks/mask_003.jpg,,,,,,,,,,,,,,,,,,,,,,,,,,,,,,,,,,,,,,,,,,,0,4,4,2,1,,,,,,,,,,,,,,,,,,,,,,,,,,,,,,,,,,,,,,,,,,,,,,
991761,001,2022-11-21_24h55.43.521,Info_measure_main_exp,2022.2.2,Win32,60.41200991,,,,,,,,,,,,,,,,,,masks/mask_001.jpg,,,,,,,,,,,,,,,,,,,,,,,,,,,,,,,,,,,,,,,,,,,,,,,,0,0,0,0,1,,,,,,,,,,,,,,,,,,,,,,,,,,,,,,,,,,,,,,,,,
991761,001,2022-11-21_24h55.43.521,Info_measure_main_exp,2022.2.2,Win32,60.41200991,,,,,,,,,,,,,,,,,,masks/mask_004.jpg,,,,,,,,,,,,,,,,,,,,,,,,,,,,,,,,,,,,,,,,,,,,,,,,0,1,1,3,1,,,,,,,,,,,,,,,,,,,,,,,,,,,,,,,,,,,,,,,,,
991761,001,2022-11-21_24h55.43.521,Info_measure_main_exp,2022.2.2,Win32,60.41200991,,,,,,,,,,,,,,,,,,masks/mask_003.jpg,,,,,,,,,,,,,,,,,,,,,,,,,,,,,,,,,,,,,,,,,,,,,,,,0,2,2,2,1,,,,,,,,,,,,,,,,,,,,,,,,,,,,,,,,,,,,,,,,,
991761,001,2022-11-21_24h55.43.521,Info_measure_main_exp,2022.2.2,Win32,60.41200991,,,,,,,,,,,,,,,,,,masks/mask_002.jpg,,,,,,,,,,,,,,,,,,,,,,,,,,,,,,,,,,,,,,,,,,,,,,,,0,3,3,1,1,,,,,,,,,,,,,,,,,,,,,,,,,,,,,,,,,,,,,,,,,
991761,001,2022-11-21_24h55.43.521,Info_measure_main_exp,2022.2.2,Win32,60.41200991,,,,,,,,,,,,,,,,,,masks/mask_005.jpg,,,,,,,,,,,,,,,,,,,,,,,,,,,,,,,,,,,,,,,,,,,,,,,,0,4,4,4,1,,,,,,,,,,,,,,,,,,,,,,,,,,,,,,,,,,,,,,,,,
991761,001,2022-11-21_24h55.43.521,Info_measure_main_exp,2022.2.2,Win32,60.41200991,,,,,,,,,,,,,,,,,,,,,,,,,,,,,,6,2.8172,1,,,,,,,,,,,,0,131,5,5,2142,2166,absent_patch/patch0002142.jpg,absent_patch/patch0002166.jpg,,,,,,,,,,,,,,,,,,,,0.053703732,0.01203703,1,0,0,response1disk,1,0,-0.008333347,1,0,0,center_square,0,0,0,66,1,,,,,,,,,,,,,,,,,,,,,,,
991761,001,2022-11-21_24h55.43.521,Info_measure_main_exp,2022.2.2,Win32,60.41200991,,,,,,,,,,,,,,,,,,masks/mask_003.jpg,,,,,,,,,,,,,,,,,,,,,,,,,,,,,,,,,,,,,,,,,,,0,0,0,2,1,,,,,,,,,,,,,,,,,,,,,,,,,,,,,,,,,,,,,,,,,,,,,,
991761,001,2022-11-21_24h55.43.521,Info_measure_main_exp,2022.2.2,Win32,60.41200991,,,,,,,,,,,,,,,,,,masks/mask_001.jpg,,,,,,,,,,,,,,,,,,,,,,,,,,,,,,,,,,,,,,,,,,,0,1,1,0,1,,,,,,,,,,,,,,,,,,,,,,,,,,,,,,,,,,,,,,,,,,,,,,
991761,001,2022-11-21_24h55.43.521,Info_measure_main_exp,2022.2.2,Win32,60.41200991,,,,,,,,,,,,,,,,,,masks/mask_004.jpg,,,,,,,,,,,,,,,,,,,,,,,,,,,,,,,,,,,,,,,,,,,0,2,2,3,1,,,,,,,,,,,,,,,,,,,,,,,,,,,,,,,,,,,,,,,,,,,,,,
991761,001,2022-11-21_24h55.43.521,Info_measure_main_exp,2022.2.2,Win32,60.41200991,,,,,,,,,,,,,,,,,,masks/mask_005.jpg,,,,,,,,,,,,,,,,,,,,,,,,,,,,,,,,,,,,,,,,,,,0,3,3,4,1,,,,,,,,,,,,,,,,,,,,,,,,,,,,,,,,,,,,,,,,,,,,,,
991761,001,2022-11-21_24h55.43.521,Info_measure_main_exp,2022.2.2,Win32,60.41200991,,,,,,,,,,,,,,,,,,masks/mask_002.jpg,,,,,,,,,,,,,,,,,,,,,,,,,,,,,,,,,,,,,,,,,,,0,4,4,1,1,,,,,,,,,,,,,,,,,,,,,,,,,,,,,,,,,,,,,,,,,,,,,,
991761,001,2022-11-21_24h55.43.521,Info_measure_main_exp,2022.2.2,Win32,60.41200991,,,,,,,,,,,,,,,,,,masks/mask_002.jpg,,,,,,,,,,,,,,,,,,,,,,,,,,,,,,,,,,,,,,,,,,,,,,,,0,0,0,1,1,,,,,,,,,,,,,,,,,,,,,,,,,,,,,,,,,,,,,,,,,
991761,001,2022-11-21_24h55.43.521,Info_measure_main_exp,2022.2.2,Win32,60.41200991,,,,,,,,,,,,,,,,,,masks/mask_001.jpg,,,,,,,,,,,,,,,,,,,,,,,,,,,,,,,,,,,,,,,,,,,,,,,,0,1,1,0,1,,,,,,,,,,,,,,,,,,,,,,,,,,,,,,,,,,,,,,,,,
991761,001,2022-11-21_24h55.43.521,Info_measure_main_exp,2022.2.2,Win32,60.41200991,,,,,,,,,,,,,,,,,,masks/mask_005.jpg,,,,,,,,,,,,,,,,,,,,,,,,,,,,,,,,,,,,,,,,,,,,,,,,0,2,2,4,1,,,,,,,,,,,,,,,,,,,,,,,,,,,,,,,,,,,,,,,,,
991761,001,2022-11-21_24h55.43.521,Info_measure_main_exp,2022.2.2,Win32,60.41200991,,,,,,,,,,,,,,,,,,masks/mask_003.jpg,,,,,,,,,,,,,,,,,,,,,,,,,,,,,,,,,,,,,,,,,,,,,,,,0,3,3,2,1,,,,,,,,,,,,,,,,,,,,,,,,,,,,,,,,,,,,,,,,,
991761,001,2022-11-21_24h55.43.521,Info_measure_main_exp,2022.2.2,Win32,60.41200991,,,,,,,,,,,,,,,,,,masks/mask_004.jpg,,,,,,,,,,,,,,,,,,,,,,,,,,,,,,,,,,,,,,,,,,,,,,,,0,4,4,3,1,,,,,,,,,,,,,,,,,,,,,,,,,,,,,,,,,,,,,,,,,
991761,001,2022-11-21_24h55.43.521,Info_measure_main_exp,2022.2.2,Win32,60.41200991,,,,,,,,,,,,,,,,,,,,,,,,,,,,,,6,0.6099,1,,,,,,,,,,,,0,131,5,5,2178,2154,absent_patch/patch0002178.jpg,absent_patch/patch0002154.jpg,,,,,,,,,,,,,,,,,,,,0.128703718,0.046296296,1,0,0,response1disk,2,-0.009259259,-0.000925947,1,0,0,center_square,0,1,1,63,1,,,,,,,,,,,,,,,,,,,,,,,
991761,001,2022-11-21_24h55.43.521,Info_measure_main_exp,2022.2.2,Win32,60.41200991,,,,,,,,,,,,,,,,,,masks/mask_001.jpg,,,,,,,,,,,,,,,,,,,,,,,,,,,,,,,,,,,,,,,,,,,0,0,0,0,1,,,,,,,,,,,,,,,,,,,,,,,,,,,,,,,,,,,,,,,,,,,,,,
991761,001,2022-11-21_24h55.43.521,Info_measure_main_exp,2022.2.2,Win32,60.41200991,,,,,,,,,,,,,,,,,,masks/mask_003.jpg,,,,,,,,,,,,,,,,,,,,,,,,,,,,,,,,,,,,,,,,,,,0,1,1,2,1,,,,,,,,,,,,,,,,,,,,,,,,,,,,,,,,,,,,,,,,,,,,,,
991761,001,2022-11-21_24h55.43.521,Info_measure_main_exp,2022.2.2,Win32,60.41200991,,,,,,,,,,,,,,,,,,masks/mask_002.jpg,,,,,,,,,,,,,,,,,,,,,,,,,,,,,,,,,,,,,,,,,,,0,2,2,1,1,,,,,,,,,,,,,,,,,,,,,,,,,,,,,,,,,,,,,,,,,,,,,,
991761,001,2022-11-21_24h55.43.521,Info_measure_main_exp,2022.2.2,Win32,60.41200991,,,,,,,,,,,,,,,,,,masks/mask_004.jpg,,,,,,,,,,,,,,,,,,,,,,,,,,,,,,,,,,,,,,,,,,,0,3,3,3,1,,,,,,,,,,,,,,,,,,,,,,,,,,,,,,,,,,,,,,,,,,,,,,
991761,001,2022-11-21_24h55.43.521,Info_measure_main_exp,2022.2.2,Win32,60.41200991,,,,,,,,,,,,,,,,,,masks/mask_005.jpg,,,,,,,,,,,,,,,,,,,,,,,,,,,,,,,,,,,,,,,,,,,0,4,4,4,1,,,,,,,,,,,,,,,,,,,,,,,,,,,,,,,,,,,,,,,,,,,,,,
991761,001,2022-11-21_24h55.43.521,Info_measure_main_exp,2022.2.2,Win32,60.41200991,,,,,,,,,,,,,,,,,,masks/mask_003.jpg,,,,,,,,,,,,,,,,,,,,,,,,,,,,,,,,,,,,,,,,,,,,,,,,0,0,0,2,1,,,,,,,,,,,,,,,,,,,,,,,,,,,,,,,,,,,,,,,,,
991761,001,2022-11-21_24h55.43.521,Info_measure_main_exp,2022.2.2,Win32,60.41200991,,,,,,,,,,,,,,,,,,masks/mask_001.jpg,,,,,,,,,,,,,,,,,,,,,,,,,,,,,,,,,,,,,,,,,,,,,,,,0,1,1,0,1,,,,,,,,,,,,,,,,,,,,,,,,,,,,,,,,,,,,,,,,,
991761,001,2022-11-21_24h55.43.521,Info_measure_main_exp,2022.2.2,Win32,60.41200991,,,,,,,,,,,,,,,,,,masks/mask_005.jpg,,,,,,,,,,,,,,,,,,,,,,,,,,,,,,,,,,,,,,,,,,,,,,,,0,2,2,4,1,,,,,,,,,,,,,,,,,,,,,,,,,,,,,,,,,,,,,,,,,
991761,001,2022-11-21_24h55.43.521,Info_measure_main_exp,2022.2.2,Win32,60.41200991,,,,,,,,,,,,,,,,,,masks/mask_004.jpg,,,,,,,,,,,,,,,,,,,,,,,,,,,,,,,,,,,,,,,,,,,,,,,,0,3,3,3,1,,,,,,,,,,,,,,,,,,,,,,,,,,,,,,,,,,,,,,,,,
991761,001,2022-11-21_24h55.43.521,Info_measure_main_exp,2022.2.2,Win32,60.41200991,,,,,,,,,,,,,,,,,,masks/mask_002.jpg,,,,,,,,,,,,,,,,,,,,,,,,,,,,,,,,,,,,,,,,,,,,,,,,0,4,4,1,1,,,,,,,,,,,,,,,,,,,,,,,,,,,,,,,,,,,,,,,,,
991761,001,2022-11-21_24h55.43.521,Info_measure_main_exp,2022.2.2,Win32,60.41200991,,,,,,,,,,,,,,,,,,,,,,,,,,,,,,6,0.7336,1,,,,,,,,,,,,0,131,5,5,2250,2166,absent_patch/patch0002250.jpg,absent_patch/patch0002166.jpg,,,,,,,,,,,,,,,,,,,,0.145370413,0.062037044,1,0,0,response1disk,3,0.002777806,0.008333312,1,0,0,center_square,0,2,2,60,1,,,,,,,,,,,,,,,,,,,,,,,
991761,001,2022-11-21_24h55.43.521,Info_measure_main_exp,2022.2.2,Win32,60.41200991,,,,,,,,,,,,,,,,,,masks/mask_002.jpg,,,,,,,,,,,,,,,,,,,,,,,,,,,,,,,,,,,,,,,,,,,0,0,0,1,1,,,,,,,,,,,,,,,,,,,,,,,,,,,,,,,,,,,,,,,,,,,,,,
991761,001,2022-11-21_24h55.43.521,Info_measure_main_exp,2022.2.2,Win32,60.41200991,,,,,,,,,,,,,,,,,,masks/mask_005.jpg,,,,,,,,,,,,,,,,,,,,,,,,,,,,,,,,,,,,,,,,,,,0,1,1,4,1,,,,,,,,,,,,,,,,,,,,,,,,,,,,,,,,,,,,,,,,,,,,,,
991761,001,2022-11-21_24h55.43.521,Info_measure_main_exp,2022.2.2,Win32,60.41200991,,,,,,,,,,,,,,,,,,masks/mask_003.jpg,,,,,,,,,,,,,,,,,,,,,,,,,,,,,,,,,,,,,,,,,,,0,2,2,2,1,,,,,,,,,,,,,,,,,,,,,,,,,,,,,,,,,,,,,,,,,,,,,,
991761,001,2022-11-21_24h55.43.521,Info_measure_main_exp,2022.2.2,Win32,60.41200991,,,,,,,,,,,,,,,,,,masks/mask_001.jpg,,,,,,,,,,,,,,,,,,,,,,,,,,,,,,,,,,,,,,,,,,,0,3,3,0,1,,,,,,,,,,,,,,,,,,,,,,,,,,,,,,,,,,,,,,,,,,,,,,
991761,001,2022-11-21_24h55.43.521,Info_measure_main_exp,2022.2.2,Win32,60.41200991,,,,,,,,,,,,,,,,,,masks/mask_004.jpg,,,,,,,,,,,,,,,,,,,,,,,,,,,,,,,,,,,,,,,,,,,0,4,4,3,1,,,,,,,,,,,,,,,,,,,,,,,,,,,,,,,,,,,,,,,,,,,,,,
991761,001,2022-11-21_24h55.43.521,Info_measure_main_exp,2022.2.2,Win32,60.41200991,,,,,,,,,,,,,,,,,,masks/mask_003.jpg,,,,,,,,,,,,,,,,,,,,,,,,,,,,,,,,,,,,,,,,,,,,,,,,0,0,0,2,1,,,,,,,,,,,,,,,,,,,,,,,,,,,,,,,,,,,,,,,,,
991761,001,2022-11-21_24h55.43.521,Info_measure_main_exp,2022.2.2,Win32,60.41200991,,,,,,,,,,,,,,,,,,masks/mask_002.jpg,,,,,,,,,,,,,,,,,,,,,,,,,,,,,,,,,,,,,,,,,,,,,,,,0,1,1,1,1,,,,,,,,,,,,,,,,,,,,,,,,,,,,,,,,,,,,,,,,,
991761,001,2022-11-21_24h55.43.521,Info_measure_main_exp,2022.2.2,Win32,60.41200991,,,,,,,,,,,,,,,,,,masks/mask_004.jpg,,,,,,,,,,,,,,,,,,,,,,,,,,,,,,,,,,,,,,,,,,,,,,,,0,2,2,3,1,,,,,,,,,,,,,,,,,,,,,,,,,,,,,,,,,,,,,,,,,
991761,001,2022-11-21_24h55.43.521,Info_measure_main_exp,2022.2.2,Win32,60.41200991,,,,,,,,,,,,,,,,,,masks/mask_005.jpg,,,,,,,,,,,,,,,,,,,,,,,,,,,,,,,,,,,,,,,,,,,,,,,,0,3,3,4,1,,,,,,,,,,,,,,,,,,,,,,,,,,,,,,,,,,,,,,,,,
991761,001,2022-11-21_24h55.43.521,Info_measure_main_exp,2022.2.2,Win32,60.41200991,,,,,,,,,,,,,,,,,,masks/mask_001.jpg,,,,,,,,,,,,,,,,,,,,,,,,,,,,,,,,,,,,,,,,,,,,,,,,0,4,4,0,1,,,,,,,,,,,,,,,,,,,,,,,,,,,,,,,,,,,,,,,,,
991761,001,2022-11-21_24h55.43.521,Info_measure_main_exp,2022.2.2,Win32,60.41200991,,,,,,,,,,,,,,,,,,,,,,,,,,,,,,6,0.7931,1,,,,,,,,,,,,1,131,5,5,1,2166,present_patch/cong_131_5_a.jpg,absent_patch/patch0002166.jpg,,,,,,,,,,,,,,,,,,,,0.152777778,0.049074067,1,0,0,response1disk,4,0.006481524,0.00462963,1,0,0,center_square,0,3,3,54,1,,,,,,,,,,,,,,,,,,,,,,,
991761,001,2022-11-21_24h55.43.521,Info_measure_main_exp,2022.2.2,Win32,60.41200991,,,,,,,,,,,,,,,,,,masks/mask_001.jpg,,,,,,,,,,,,,,,,,,,,,,,,,,,,,,,,,,,,,,,,,,,0,0,0,0,1,,,,,,,,,,,,,,,,,,,,,,,,,,,,,,,,,,,,,,,,,,,,,,
991761,001,2022-11-21_24h55.43.521,Info_measure_main_exp,2022.2.2,Win32,60.41200991,,,,,,,,,,,,,,,,,,masks/mask_003.jpg,,,,,,,,,,,,,,,,,,,,,,,,,,,,,,,,,,,,,,,,,,,0,1,1,2,1,,,,,,,,,,,,,,,,,,,,,,,,,,,,,,,,,,,,,,,,,,,,,,
991761,001,2022-11-21_24h55.43.521,Info_measure_main_exp,2022.2.2,Win32,60.41200991,,,,,,,,,,,,,,,,,,masks/mask_005.jpg,,,,,,,,,,,,,,,,,,,,,,,,,,,,,,,,,,,,,,,,,,,0,2,2,4,1,,,,,,,,,,,,,,,,,,,,,,,,,,,,,,,,,,,,,,,,,,,,,,
991761,001,2022-11-21_24h55.43.521,Info_measure_main_exp,2022.2.2,Win32,60.41200991,,,,,,,,,,,,,,,,,,masks/mask_004.jpg,,,,,,,,,,,,,,,,,,,,,,,,,,,,,,,,,,,,,,,,,,,0,3,3,3,1,,,,,,,,,,,,,,,,,,,,,,,,,,,,,,,,,,,,,,,,,,,,,,
991761,001,2022-11-21_24h55.43.521,Info_measure_main_exp,2022.2.2,Win32,60.41200991,,,,,,,,,,,,,,,,,,masks/mask_002.jpg,,,,,,,,,,,,,,,,,,,,,,,,,,,,,,,,,,,,,,,,,,,0,4,4,1,1,,,,,,,,,,,,,,,,,,,,,,,,,,,,,,,,,,,,,,,,,,,,,,
991761,001,2022-11-21_24h55.43.521,Info_measure_main_exp,2022.2.2,Win32,60.41200991,,,,,,,,,,,,,,,,,,masks/mask_004.jpg,,,,,,,,,,,,,,,,,,,,,,,,,,,,,,,,,,,,,,,,,,,,,,,,0,0,0,3,1,,,,,,,,,,,,,,,,,,,,,,,,,,,,,,,,,,,,,,,,,
991761,001,2022-11-21_24h55.43.521,Info_measure_main_exp,2022.2.2,Win32,60.41200991,,,,,,,,,,,,,,,,,,masks/mask_005.jpg,,,,,,,,,,,,,,,,,,,,,,,,,,,,,,,,,,,,,,,,,,,,,,,,0,1,1,4,1,,,,,,,,,,,,,,,,,,,,,,,,,,,,,,,,,,,,,,,,,
991761,001,2022-11-21_24h55.43.521,Info_measure_main_exp,2022.2.2,Win32,60.41200991,,,,,,,,,,,,,,,,,,masks/mask_002.jpg,,,,,,,,,,,,,,,,,,,,,,,,,,,,,,,,,,,,,,,,,,,,,,,,0,2,2,1,1,,,,,,,,,,,,,,,,,,,,,,,,,,,,,,,,,,,,,,,,,
991761,001,2022-11-21_24h55.43.521,Info_measure_main_exp,2022.2.2,Win32,60.41200991,,,,,,,,,,,,,,,,,,masks/mask_003.jpg,,,,,,,,,,,,,,,,,,,,,,,,,,,,,,,,,,,,,,,,,,,,,,,,0,3,3,2,1,,,,,,,,,,,,,,,,,,,,,,,,,,,,,,,,,,,,,,,,,
991761,001,2022-11-21_24h55.43.521,Info_measure_main_exp,2022.2.2,Win32,60.41200991,,,,,,,,,,,,,,,,,,masks/mask_001.jpg,,,,,,,,,,,,,,,,,,,,,,,,,,,,,,,,,,,,,,,,,,,,,,,,0,4,4,0,1,,,,,,,,,,,,,,,,,,,,,,,,,,,,,,,,,,,,,,,,,
991761,001,2022-11-21_24h55.43.521,Info_measure_main_exp,2022.2.2,Win32,60.41200991,,,,,,,,,,,,,,,,,,,,,,,,,,,,,,6,0.7668,1,,,,,,,,,,,,0,131,5,5,2166,1986,absent_patch/patch0002166.jpg,absent_patch/patch0001986.jpg,,,,,,,,,,,,,,,,,,,,0.094444487,0.018518519,1,0,0,response1disk,5,-0.013888889,0.000925912,1,0,0,center_square,0,4,4,47,1,,,,,,,,,,,,,,,,,,,,,,,
991761,001,2022-11-21_24h55.43.521,Info_measure_main_exp,2022.2.2,Win32,60.41200991,,,,,,,,,,,,,,,,,,masks/mask_004.jpg,,,,,,,,,,,,,,,,,,,,,,,,,,,,,,,,,,,,,,,,,,,0,0,0,3,1,,,,,,,,,,,,,,,,,,,,,,,,,,,,,,,,,,,,,,,,,,,,,,
991761,001,2022-11-21_24h55.43.521,Info_measure_main_exp,2022.2.2,Win32,60.41200991,,,,,,,,,,,,,,,,,,masks/mask_001.jpg,,,,,,,,,,,,,,,,,,,,,,,,,,,,,,,,,,,,,,,,,,,0,1,1,0,1,,,,,,,,,,,,,,,,,,,,,,,,,,,,,,,,,,,,,,,,,,,,,,
991761,001,2022-11-21_24h55.43.521,Info_measure_main_exp,2022.2.2,Win32,60.41200991,,,,,,,,,,,,,,,,,,masks/mask_003.jpg,,,,,,,,,,,,,,,,,,,,,,,,,,,,,,,,,,,,,,,,,,,0,2,2,2,1,,,,,,,,,,,,,,,,,,,,,,,,,,,,,,,,,,,,,,,,,,,,,,
991761,001,2022-11-21_24h55.43.521,Info_measure_main_exp,2022.2.2,Win32,60.41200991,,,,,,,,,,,,,,,,,,masks/mask_002.jpg,,,,,,,,,,,,,,,,,,,,,,,,,,,,,,,,,,,,,,,,,,,0,3,3,1,1,,,,,,,,,,,,,,,,,,,,,,,,,,,,,,,,,,,,,,,,,,,,,,
991761,001,2022-11-21_24h55.43.521,Info_measure_main_exp,2022.2.2,Win32,60.41200991,,,,,,,,,,,,,,,,,,masks/mask_005.jpg,,,,,,,,,,,,,,,,,,,,,,,,,,,,,,,,,,,,,,,,,,,0,4,4,4,1,,,,,,,,,,,,,,,,,,,,,,,,,,,,,,,,,,,,,,,,,,,,,,
991761,001,2022-11-21_24h55.43.521,Info_measure_main_exp,2022.2.2,Win32,60.41200991,,,,,,,,,,,,,,,,,,masks/mask_005.jpg,,,,,,,,,,,,,,,,,,,,,,,,,,,,,,,,,,,,,,,,,,,,,,,,0,0,0,4,1,,,,,,,,,,,,,,,,,,,,,,,,,,,,,,,,,,,,,,,,,
991761,001,2022-11-21_24h55.43.521,Info_measure_main_exp,2022.2.2,Win32,60.41200991,,,,,,,,,,,,,,,,,,masks/mask_004.jpg,,,,,,,,,,,,,,,,,,,,,,,,,,,,,,,,,,,,,,,,,,,,,,,,0,1,1,3,1,,,,,,,,,,,,,,,,,,,,,,,,,,,,,,,,,,,,,,,,,
991761,001,2022-11-21_24h55.43.521,Info_measure_main_exp,2022.2.2,Win32,60.41200991,,,,,,,,,,,,,,,,,,masks/mask_002.jpg,,,,,,,,,,,,,,,,,,,,,,,,,,,,,,,,,,,,,,,,,,,,,,,,0,2,2,1,1,,,,,,,,,,,,,,,,,,,,,,,,,,,,,,,,,,,,,,,,,
991761,001,2022-11-21_24h55.43.521,Info_measure_main_exp,2022.2.2,Win32,60.41200991,,,,,,,,,,,,,,,,,,masks/mask_003.jpg,,,,,,,,,,,,,,,,,,,,,,,,,,,,,,,,,,,,,,,,,,,,,,,,0,3,3,2,1,,,,,,,,,,,,,,,,,,,,,,,,,,,,,,,,,,,,,,,,,
991761,001,2022-11-21_24h55.43.521,Info_measure_main_exp,2022.2.2,Win32,60.41200991,,,,,,,,,,,,,,,,,,masks/mask_001.jpg,,,,,,,,,,,,,,,,,,,,,,,,,,,,,,,,,,,,,,,,,,,,,,,,0,4,4,0,1,,,,,,,,,,,,,,,,,,,,,,,,,,,,,,,,,,,,,,,,,
991761,001,2022-11-21_24h55.43.521,Info_measure_main_exp,2022.2.2,Win32,60.41200991,,,,,,,,,,,,,,,,,,,,,,,,,,,,,,6,0.567,1,,,,,,,,,,,,0,131,5,5,2142,2190,absent_patch/patch0002142.jpg,absent_patch/patch0002190.jpg,,,,,,,,,,,,,,,,,,,,0.163888931,0.049074067,1,0,0,response1disk,6,0,0.008333312,1,0,0,center_square,0,5,5,70,1,,,,,,,,,,,,,,,,,,,,,,,
991761,001,2022-11-21_24h55.43.521,Info_measure_main_exp,2022.2.2,Win32,60.41200991,,,,,,,,,,,,,,,,,,masks/mask_002.jpg,,,,,,,,,,,,,,,,,,,,,,,,,,,,,,,,,,,,,,,,,,,0,0,0,1,1,,,,,,,,,,,,,,,,,,,,,,,,,,,,,,,,,,,,,,,,,,,,,,
991761,001,2022-11-21_24h55.43.521,Info_measure_main_exp,2022.2.2,Win32,60.41200991,,,,,,,,,,,,,,,,,,masks/mask_003.jpg,,,,,,,,,,,,,,,,,,,,,,,,,,,,,,,,,,,,,,,,,,,0,1,1,2,1,,,,,,,,,,,,,,,,,,,,,,,,,,,,,,,,,,,,,,,,,,,,,,
991761,001,2022-11-21_24h55.43.521,Info_measure_main_exp,2022.2.2,Win32,60.41200991,,,,,,,,,,,,,,,,,,masks/mask_005.jpg,,,,,,,,,,,,,,,,,,,,,,,,,,,,,,,,,,,,,,,,,,,0,2,2,4,1,,,,,,,,,,,,,,,,,,,,,,,,,,,,,,,,,,,,,,,,,,,,,,
991761,001,2022-11-21_24h55.43.521,Info_measure_main_exp,2022.2.2,Win32,60.41200991,,,,,,,,,,,,,,,,,,masks/mask_001.jpg,,,,,,,,,,,,,,,,,,,,,,,,,,,,,,,,,,,,,,,,,,,0,3,3,0,1,,,,,,,,,,,,,,,,,,,,,,,,,,,,,,,,,,,,,,,,,,,,,,
991761,001,2022-11-21_24h55.43.521,Info_measure_main_exp,2022.2.2,Win32,60.41200991,,,,,,,,,,,,,,,,,,masks/mask_004.jpg,,,,,,,,,,,,,,,,,,,,,,,,,,,,,,,,,,,,,,,,,,,0,4,4,3,1,,,,,,,,,,,,,,,,,,,,,,,,,,,,,,,,,,,,,,,,,,,,,,
991761,001,2022-11-21_24h55.43.521,Info_measure_main_exp,2022.2.2,Win32,60.41200991,,,,,,,,,,,,,,,,,,masks/mask_004.jpg,,,,,,,,,,,,,,,,,,,,,,,,,,,,,,,,,,,,,,,,,,,,,,,,0,0,0,3,1,,,,,,,,,,,,,,,,,,,,,,,,,,,,,,,,,,,,,,,,,
991761,001,2022-11-21_24h55.43.521,Info_measure_main_exp,2022.2.2,Win32,60.41200991,,,,,,,,,,,,,,,,,,masks/mask_005.jpg,,,,,,,,,,,,,,,,,,,,,,,,,,,,,,,,,,,,,,,,,,,,,,,,0,1,1,4,1,,,,,,,,,,,,,,,,,,,,,,,,,,,,,,,,,,,,,,,,,
991761,001,2022-11-21_24h55.43.521,Info_measure_main_exp,2022.2.2,Win32,60.41200991,,,,,,,,,,,,,,,,,,masks/mask_003.jpg,,,,,,,,,,,,,,,,,,,,,,,,,,,,,,,,,,,,,,,,,,,,,,,,0,2,2,2,1,,,,,,,,,,,,,,,,,,,,,,,,,,,,,,,,,,,,,,,,,
991761,001,2022-11-21_24h55.43.521,Info_measure_main_exp,2022.2.2,Win32,60.41200991,,,,,,,,,,,,,,,,,,masks/mask_001.jpg,,,,,,,,,,,,,,,,,,,,,,,,,,,,,,,,,,,,,,,,,,,,,,,,0,3,3,0,1,,,,,,,,,,,,,,,,,,,,,,,,,,,,,,,,,,,,,,,,,
991761,001,2022-11-21_24h55.43.521,Info_measure_main_exp,2022.2.2,Win32,60.41200991,,,,,,,,,,,,,,,,,,masks/mask_002.jpg,,,,,,,,,,,,,,,,,,,,,,,,,,,,,,,,,,,,,,,,,,,,,,,,0,4,4,1,1,,,,,,,,,,,,,,,,,,,,,,,,,,,,,,,,,,,,,,,,,
991761,001,2022-11-21_24h55.43.521,Info_measure_main_exp,2022.2.2,Win32,60.41200991,,,,,,,,,,,,,,,,,,,,,,,,,,,,,,6,0.5997,1,,,,,,,,,,,,0,131,5,5,2238,2166,absent_patch/patch0002238.jpg,absent_patch/patch0002166.jpg,,,,,,,,,,,,,,,,,,,,0.142592607,0.081481474,1,0,0,response1disk,7,-0.000925912,0.005555541,1,0,0,center_square,0,6,6,118,1,,,,,,,,,,,,,,,,,,,,,,,
991761,001,2022-11-21_24h55.43.521,Info_measure_main_exp,2022.2.2,Win32,60.41200991,,,,,,,,,,,,,,,,,,masks/mask_004.jpg,,,,,,,,,,,,,,,,,,,,,,,,,,,,,,,,,,,,,,,,,,,0,0,0,3,1,,,,,,,,,,,,,,,,,,,,,,,,,,,,,,,,,,,,,,,,,,,,,,
991761,001,2022-11-21_24h55.43.521,Info_measure_main_exp,2022.2.2,Win32,60.41200991,,,,,,,,,,,,,,,,,,masks/mask_002.jpg,,,,,,,,,,,,,,,,,,,,,,,,,,,,,,,,,,,,,,,,,,,0,1,1,1,1,,,,,,,,,,,,,,,,,,,,,,,,,,,,,,,,,,,,,,,,,,,,,,
991761,001,2022-11-21_24h55.43.521,Info_measure_main_exp,2022.2.2,Win32,60.41200991,,,,,,,,,,,,,,,,,,masks/mask_005.jpg,,,,,,,,,,,,,,,,,,,,,,,,,,,,,,,,,,,,,,,,,,,0,2,2,4,1,,,,,,,,,,,,,,,,,,,,,,,,,,,,,,,,,,,,,,,,,,,,,,
991761,001,2022-11-21_24h55.43.521,Info_measure_main_exp,2022.2.2,Win32,60.41200991,,,,,,,,,,,,,,,,,,masks/mask_003.jpg,,,,,,,,,,,,,,,,,,,,,,,,,,,,,,,,,,,,,,,,,,,0,3,3,2,1,,,,,,,,,,,,,,,,,,,,,,,,,,,,,,,,,,,,,,,,,,,,,,
991761,001,2022-11-21_24h55.43.521,Info_measure_main_exp,2022.2.2,Win32,60.41200991,,,,,,,,,,,,,,,,,,masks/mask_001.jpg,,,,,,,,,,,,,,,,,,,,,,,,,,,,,,,,,,,,,,,,,,,0,4,4,0,1,,,,,,,,,,,,,,,,,,,,,,,,,,,,,,,,,,,,,,,,,,,,,,
991761,001,2022-11-21_24h55.43.521,Info_measure_main_exp,2022.2.2,Win32,60.41200991,,,,,,,,,,,,,,,,,,masks/mask_005.jpg,,,,,,,,,,,,,,,,,,,,,,,,,,,,,,,,,,,,,,,,,,,,,,,,0,0,0,4,1,,,,,,,,,,,,,,,,,,,,,,,,,,,,,,,,,,,,,,,,,
991761,001,2022-11-21_24h55.43.521,Info_measure_main_exp,2022.2.2,Win32,60.41200991,,,,,,,,,,,,,,,,,,masks/mask_002.jpg,,,,,,,,,,,,,,,,,,,,,,,,,,,,,,,,,,,,,,,,,,,,,,,,0,1,1,1,1,,,,,,,,,,,,,,,,,,,,,,,,,,,,,,,,,,,,,,,,,
991761,001,2022-11-21_24h55.43.521,Info_measure_main_exp,2022.2.2,Win32,60.41200991,,,,,,,,,,,,,,,,,,masks/mask_001.jpg,,,,,,,,,,,,,,,,,,,,,,,,,,,,,,,,,,,,,,,,,,,,,,,,0,2,2,0,1,,,,,,,,,,,,,,,,,,,,,,,,,,,,,,,,,,,,,,,,,
991761,001,2022-11-21_24h55.43.521,Info_measure_main_exp,2022.2.2,Win32,60.41200991,,,,,,,,,,,,,,,,,,masks/mask_003.jpg,,,,,,,,,,,,,,,,,,,,,,,,,,,,,,,,,,,,,,,,,,,,,,,,0,3,3,2,1,,,,,,,,,,,,,,,,,,,,,,,,,,,,,,,,,,,,,,,,,
991761,001,2022-11-21_24h55.43.521,Info_measure_main_exp,2022.2.2,Win32,60.41200991,,,,,,,,,,,,,,,,,,masks/mask_004.jpg,,,,,,,,,,,,,,,,,,,,,,,,,,,,,,,,,,,,,,,,,,,,,,,,0,4,4,3,1,,,,,,,,,,,,,,,,,,,,,,,,,,,,,,,,,,,,,,,,,
991761,001,2022-11-21_24h55.43.521,Info_measure_main_exp,2022.2.2,Win32,60.41200991,,,,,,,,,,,,,,,,,,,,,,,,,,,,,,6,0.4334,1,,,,,,,,,,,,0,131,5,5,2274,2238,absent_patch/patch0002274.jpg,absent_patch/patch0002238.jpg,,,,,,,,,,,,,,,,,,,,0.078703704,0.034259266,1,0,0,response1disk,8,0.000925912,0.003703683,1,0,0,center_square,0,7,7,91,1,,,,,,,,,,,,,,,,,,,,,,,
991761,001,2022-11-21_24h55.43.521,Info_measure_main_exp,2022.2.2,Win32,60.41200991,,,,,,,,,,,,,,,,,,masks/mask_001.jpg,,,,,,,,,,,,,,,,,,,,,,,,,,,,,,,,,,,,,,,,,,,0,0,0,0,1,,,,,,,,,,,,,,,,,,,,,,,,,,,,,,,,,,,,,,,,,,,,,,
991761,001,2022-11-21_24h55.43.521,Info_measure_main_exp,2022.2.2,Win32,60.41200991,,,,,,,,,,,,,,,,,,masks/mask_004.jpg,,,,,,,,,,,,,,,,,,,,,,,,,,,,,,,,,,,,,,,,,,,0,1,1,3,1,,,,,,,,,,,,,,,,,,,,,,,,,,,,,,,,,,,,,,,,,,,,,,
991761,001,2022-11-21_24h55.43.521,Info_measure_main_exp,2022.2.2,Win32,60.41200991,,,,,,,,,,,,,,,,,,masks/mask_003.jpg,,,,,,,,,,,,,,,,,,,,,,,,,,,,,,,,,,,,,,,,,,,0,2,2,2,1,,,,,,,,,,,,,,,,,,,,,,,,,,,,,,,,,,,,,,,,,,,,,,
991761,001,2022-11-21_24h55.43.521,Info_measure_main_exp,2022.2.2,Win32,60.41200991,,,,,,,,,,,,,,,,,,masks/mask_005.jpg,,,,,,,,,,,,,,,,,,,,,,,,,,,,,,,,,,,,,,,,,,,0,3,3,4,1,,,,,,,,,,,,,,,,,,,,,,,,,,,,,,,,,,,,,,,,,,,,,,
991761,001,2022-11-21_24h55.43.521,Info_measure_main_exp,2022.2.2,Win32,60.41200991,,,,,,,,,,,,,,,,,,masks/mask_002.jpg,,,,,,,,,,,,,,,,,,,,,,,,,,,,,,,,,,,,,,,,,,,0,4,4,1,1,,,,,,,,,,,,,,,,,,,,,,,,,,,,,,,,,,,,,,,,,,,,,,
991761,001,2022-11-21_24h55.43.521,Info_measure_main_exp,2022.2.2,Win32,60.41200991,,,,,,,,,,,,,,,,,,masks/mask_005.jpg,,,,,,,,,,,,,,,,,,,,,,,,,,,,,,,,,,,,,,,,,,,,,,,,0,0,0,4,1,,,,,,,,,,,,,,,,,,,,,,,,,,,,,,,,,,,,,,,,,
991761,001,2022-11-21_24h55.43.521,Info_measure_main_exp,2022.2.2,Win32,60.41200991,,,,,,,,,,,,,,,,,,masks/mask_001.jpg,,,,,,,,,,,,,,,,,,,,,,,,,,,,,,,,,,,,,,,,,,,,,,,,0,1,1,0,1,,,,,,,,,,,,,,,,,,,,,,,,,,,,,,,,,,,,,,,,,
991761,001,2022-11-21_24h55.43.521,Info_measure_main_exp,2022.2.2,Win32,60.41200991,,,,,,,,,,,,,,,,,,masks/mask_003.jpg,,,,,,,,,,,,,,,,,,,,,,,,,,,,,,,,,,,,,,,,,,,,,,,,0,2,2,2,1,,,,,,,,,,,,,,,,,,,,,,,,,,,,,,,,,,,,,,,,,
991761,001,2022-11-21_24h55.43.521,Info_measure_main_exp,2022.2.2,Win32,60.41200991,,,,,,,,,,,,,,,,,,masks/mask_004.jpg,,,,,,,,,,,,,,,,,,,,,,,,,,,,,,,,,,,,,,,,,,,,,,,,0,3,3,3,1,,,,,,,,,,,,,,,,,,,,,,,,,,,,,,,,,,,,,,,,,
991761,001,2022-11-21_24h55.43.521,Info_measure_main_exp,2022.2.2,Win32,60.41200991,,,,,,,,,,,,,,,,,,masks/mask_002.jpg,,,,,,,,,,,,,,,,,,,,,,,,,,,,,,,,,,,,,,,,,,,,,,,,0,4,4,1,1,,,,,,,,,,,,,,,,,,,,,,,,,,,,,,,,,,,,,,,,,
991761,001,2022-11-21_24h55.43.521,Info_measure_main_exp,2022.2.2,Win32,60.41200991,,,,,,,,,,,,,,,,,,,,,,,,,,,,,,1,0.767,1,,,,,,,,,,,,0,131,5,5,2274,2274,absent_patch/patch0002274.jpg,absent_patch/patch0002274.jpg,,,,,,,,,,,,,,,,,,,,-0.111111111,0.058333326,1,0,0,response7disk,9,-0.000925912,0.01203703,1,0,0,center_square,0,8,8,114,1,,,,,,,,,,,,,,,,,,,,,,,
991761,001,2022-11-21_24h55.43.521,Info_measure_main_exp,2022.2.2,Win32,60.41200991,,,,,,,,,,,,,,,,,,masks/mask_005.jpg,,,,,,,,,,,,,,,,,,,,,,,,,,,,,,,,,,,,,,,,,,,0,0,0,4,1,,,,,,,,,,,,,,,,,,,,,,,,,,,,,,,,,,,,,,,,,,,,,,
991761,001,2022-11-21_24h55.43.521,Info_measure_main_exp,2022.2.2,Win32,60.41200991,,,,,,,,,,,,,,,,,,masks/mask_004.jpg,,,,,,,,,,,,,,,,,,,,,,,,,,,,,,,,,,,,,,,,,,,0,1,1,3,1,,,,,,,,,,,,,,,,,,,,,,,,,,,,,,,,,,,,,,,,,,,,,,
991761,001,2022-11-21_24h55.43.521,Info_measure_main_exp,2022.2.2,Win32,60.41200991,,,,,,,,,,,,,,,,,,masks/mask_003.jpg,,,,,,,,,,,,,,,,,,,,,,,,,,,,,,,,,,,,,,,,,,,0,2,2,2,1,,,,,,,,,,,,,,,,,,,,,,,,,,,,,,,,,,,,,,,,,,,,,,
991761,001,2022-11-21_24h55.43.521,Info_measure_main_exp,2022.2.2,Win32,60.41200991,,,,,,,,,,,,,,,,,,masks/mask_002.jpg,,,,,,,,,,,,,,,,,,,,,,,,,,,,,,,,,,,,,,,,,,,0,3,3,1,1,,,,,,,,,,,,,,,,,,,,,,,,,,,,,,,,,,,,,,,,,,,,,,
991761,001,2022-11-21_24h55.43.521,Info_measure_main_exp,2022.2.2,Win32,60.41200991,,,,,,,,,,,,,,,,,,masks/mask_001.jpg,,,,,,,,,,,,,,,,,,,,,,,,,,,,,,,,,,,,,,,,,,,0,4,4,0,1,,,,,,,,,,,,,,,,,,,,,,,,,,,,,,,,,,,,,,,,,,,,,,
991761,001,2022-11-21_24h55.43.521,Info_measure_main_exp,2022.2.2,Win32,60.41200991,,,,,,,,,,,,,,,,,,masks/mask_003.jpg,,,,,,,,,,,,,,,,,,,,,,,,,,,,,,,,,,,,,,,,,,,,,,,,0,0,0,2,1,,,,,,,,,,,,,,,,,,,,,,,,,,,,,,,,,,,,,,,,,
991761,001,2022-11-21_24h55.43.521,Info_measure_main_exp,2022.2.2,Win32,60.41200991,,,,,,,,,,,,,,,,,,masks/mask_001.jpg,,,,,,,,,,,,,,,,,,,,,,,,,,,,,,,,,,,,,,,,,,,,,,,,0,1,1,0,1,,,,,,,,,,,,,,,,,,,,,,,,,,,,,,,,,,,,,,,,,
991761,001,2022-11-21_24h55.43.521,Info_measure_main_exp,2022.2.2,Win32,60.41200991,,,,,,,,,,,,,,,,,,masks/mask_004.jpg,,,,,,,,,,,,,,,,,,,,,,,,,,,,,,,,,,,,,,,,,,,,,,,,0,2,2,3,1,,,,,,,,,,,,,,,,,,,,,,,,,,,,,,,,,,,,,,,,,
991761,001,2022-11-21_24h55.43.521,Info_measure_main_exp,2022.2.2,Win32,60.41200991,,,,,,,,,,,,,,,,,,masks/mask_005.jpg,,,,,,,,,,,,,,,,,,,,,,,,,,,,,,,,,,,,,,,,,,,,,,,,0,3,3,4,1,,,,,,,,,,,,,,,,,,,,,,,,,,,,,,,,,,,,,,,,,
991761,001,2022-11-21_24h55.43.521,Info_measure_main_exp,2022.2.2,Win32,60.41200991,,,,,,,,,,,,,,,,,,masks/mask_002.jpg,,,,,,,,,,,,,,,,,,,,,,,,,,,,,,,,,,,,,,,,,,,,,,,,0,4,4,1,1,,,,,,,,,,,,,,,,,,,,,,,,,,,,,,,,,,,,,,,,,
991761,001,2022-11-21_24h55.43.521,Info_measure_main_exp,2022.2.2,Win32,60.41200991,,,,,,,,,,,,,,,,,,,,,,,,,,,,,,6,0.8132,1,,,,,,,,,,,,1,131,5,5,2238,1,absent_patch/patch0002238.jpg,present_patch/cong_131_5_a.jpg,,,,,,,,,,,,,,,,,,,,0.093518504,0.033333319,1,0,0,response1disk,10,-0.001851824,0.006481489,1,0,0,center_square,0,9,9,104,1,,,,,,,,,,,,,,,,,,,,,,,
991761,001,2022-11-21_24h55.43.521,Info_measure_main_exp,2022.2.2,Win32,60.41200991,,,,,,,,,,,,,,,,,,masks/mask_003.jpg,,,,,,,,,,,,,,,,,,,,,,,,,,,,,,,,,,,,,,,,,,,0,0,0,2,1,,,,,,,,,,,,,,,,,,,,,,,,,,,,,,,,,,,,,,,,,,,,,,
991761,001,2022-11-21_24h55.43.521,Info_measure_main_exp,2022.2.2,Win32,60.41200991,,,,,,,,,,,,,,,,,,masks/mask_005.jpg,,,,,,,,,,,,,,,,,,,,,,,,,,,,,,,,,,,,,,,,,,,0,1,1,4,1,,,,,,,,,,,,,,,,,,,,,,,,,,,,,,,,,,,,,,,,,,,,,,
991761,001,2022-11-21_24h55.43.521,Info_measure_main_exp,2022.2.2,Win32,60.41200991,,,,,,,,,,,,,,,,,,masks/mask_004.jpg,,,,,,,,,,,,,,,,,,,,,,,,,,,,,,,,,,,,,,,,,,,0,2,2,3,1,,,,,,,,,,,,,,,,,,,,,,,,,,,,,,,,,,,,,,,,,,,,,,
991761,001,2022-11-21_24h55.43.521,Info_measure_main_exp,2022.2.2,Win32,60.41200991,,,,,,,,,,,,,,,,,,masks/mask_001.jpg,,,,,,,,,,,,,,,,,,,,,,,,,,,,,,,,,,,,,,,,,,,0,3,3,0,1,,,,,,,,,,,,,,,,,,,,,,,,,,,,,,,,,,,,,,,,,,,,,,
991761,001,2022-11-21_24h55.43.521,Info_measure_main_exp,2022.2.2,Win32,60.41200991,,,,,,,,,,,,,,,,,,masks/mask_002.jpg,,,,,,,,,,,,,,,,,,,,,,,,,,,,,,,,,,,,,,,,,,,0,4,4,1,1,,,,,,,,,,,,,,,,,,,,,,,,,,,,,,,,,,,,,,,,,,,,,,
991761,001,2022-11-21_24h55.43.521,Info_measure_main_exp,2022.2.2,Win32,60.41200991,,,,,,,,,,,,,,,,,,masks/mask_003.jpg,,,,,,,,,,,,,,,,,,,,,,,,,,,,,,,,,,,,,,,,,,,,,,,,0,0,0,2,1,,,,,,,,,,,,,,,,,,,,,,,,,,,,,,,,,,,,,,,,,
991761,001,2022-11-21_24h55.43.521,Info_measure_main_exp,2022.2.2,Win32,60.41200991,,,,,,,,,,,,,,,,,,masks/mask_001.jpg,,,,,,,,,,,,,,,,,,,,,,,,,,,,,,,,,,,,,,,,,,,,,,,,0,1,1,0,1,,,,,,,,,,,,,,,,,,,,,,,,,,,,,,,,,,,,,,,,,
991761,001,2022-11-21_24h55.43.521,Info_measure_main_exp,2022.2.2,Win32,60.41200991,,,,,,,,,,,,,,,,,,masks/mask_004.jpg,,,,,,,,,,,,,,,,,,,,,,,,,,,,,,,,,,,,,,,,,,,,,,,,0,2,2,3,1,,,,,,,,,,,,,,,,,,,,,,,,,,,,,,,,,,,,,,,,,
991761,001,2022-11-21_24h55.43.521,Info_measure_main_exp,2022.2.2,Win32,60.41200991,,,,,,,,,,,,,,,,,,masks/mask_002.jpg,,,,,,,,,,,,,,,,,,,,,,,,,,,,,,,,,,,,,,,,,,,,,,,,0,3,3,1,1,,,,,,,,,,,,,,,,,,,,,,,,,,,,,,,,,,,,,,,,,
991761,001,2022-11-21_24h55.43.521,Info_measure_main_exp,2022.2.2,Win32,60.41200991,,,,,,,,,,,,,,,,,,masks/mask_005.jpg,,,,,,,,,,,,,,,,,,,,,,,,,,,,,,,,,,,,,,,,,,,,,,,,0,4,4,4,1,,,,,,,,,,,,,,,,,,,,,,,,,,,,,,,,,,,,,,,,,
991761,001,2022-11-21_24h55.43.521,Info_measure_main_exp,2022.2.2,Win32,60.41200991,,,,,,,,,,,,,,,,,,,,,,,,,,,,,,6,0.9333,1,,,,,,,,,,,,0,131,5,5,2142,2082,absent_patch/patch0002142.jpg,absent_patch/patch0002082.jpg,,,,,,,,,,,,,,,,,,,,0.095370399,0.042592578,1,0,0,response1disk,11,0.010185171,-0.0074074,1,0,0,center_square,0,10,10,88,1,,,,,,,,,,,,,,,,,,,,,,,
991761,001,2022-11-21_24h55.43.521,Info_measure_main_exp,2022.2.2,Win32,60.41200991,,,,,,,,,,,,,,,,,,masks/mask_003.jpg,,,,,,,,,,,,,,,,,,,,,,,,,,,,,,,,,,,,,,,,,,,0,0,0,2,1,,,,,,,,,,,,,,,,,,,,,,,,,,,,,,,,,,,,,,,,,,,,,,
991761,001,2022-11-21_24h55.43.521,Info_measure_main_exp,2022.2.2,Win32,60.41200991,,,,,,,,,,,,,,,,,,masks/mask_005.jpg,,,,,,,,,,,,,,,,,,,,,,,,,,,,,,,,,,,,,,,,,,,0,1,1,4,1,,,,,,,,,,,,,,,,,,,,,,,,,,,,,,,,,,,,,,,,,,,,,,
991761,001,2022-11-21_24h55.43.521,Info_measure_main_exp,2022.2.2,Win32,60.41200991,,,,,,,,,,,,,,,,,,masks/mask_001.jpg,,,,,,,,,,,,,,,,,,,,,,,,,,,,,,,,,,,,,,,,,,,0,2,2,0,1,,,,,,,,,,,,,,,,,,,,,,,,,,,,,,,,,,,,,,,,,,,,,,
991761,001,2022-11-21_24h55.43.521,Info_measure_main_exp,2022.2.2,Win32,60.41200991,,,,,,,,,,,,,,,,,,masks/mask_004.jpg,,,,,,,,,,,,,,,,,,,,,,,,,,,,,,,,,,,,,,,,,,,0,3,3,3,1,,,,,,,,,,,,,,,,,,,,,,,,,,,,,,,,,,,,,,,,,,,,,,
991761,001,2022-11-21_24h55.43.521,Info_measure_main_exp,2022.2.2,Win32,60.41200991,,,,,,,,,,,,,,,,,,masks/mask_002.jpg,,,,,,,,,,,,,,,,,,,,,,,,,,,,,,,,,,,,,,,,,,,0,4,4,1,1,,,,,,,,,,,,,,,,,,,,,,,,,,,,,,,,,,,,,,,,,,,,,,
991761,001,2022-11-21_24h55.43.521,Info_measure_main_exp,2022.2.2,Win32,60.41200991,,,,,,,,,,,,,,,,,,masks/mask_005.jpg,,,,,,,,,,,,,,,,,,,,,,,,,,,,,,,,,,,,,,,,,,,,,,,,0,0,0,4,1,,,,,,,,,,,,,,,,,,,,,,,,,,,,,,,,,,,,,,,,,
991761,001,2022-11-21_24h55.43.521,Info_measure_main_exp,2022.2.2,Win32,60.41200991,,,,,,,,,,,,,,,,,,masks/mask_001.jpg,,,,,,,,,,,,,,,,,,,,,,,,,,,,,,,,,,,,,,,,,,,,,,,,0,1,1,0,1,,,,,,,,,,,,,,,,,,,,,,,,,,,,,,,,,,,,,,,,,
991761,001,2022-11-21_24h55.43.521,Info_measure_main_exp,2022.2.2,Win32,60.41200991,,,,,,,,,,,,,,,,,,masks/mask_004.jpg,,,,,,,,,,,,,,,,,,,,,,,,,,,,,,,,,,,,,,,,,,,,,,,,0,2,2,3,1,,,,,,,,,,,,,,,,,,,,,,,,,,,,,,,,,,,,,,,,,
991761,001,2022-11-21_24h55.43.521,Info_measure_main_exp,2022.2.2,Win32,60.41200991,,,,,,,,,,,,,,,,,,masks/mask_002.jpg,,,,,,,,,,,,,,,,,,,,,,,,,,,,,,,,,,,,,,,,,,,,,,,,0,3,3,1,1,,,,,,,,,,,,,,,,,,,,,,,,,,,,,,,,,,,,,,,,,
991761,001,2022-11-21_24h55.43.521,Info_measure_main_exp,2022.2.2,Win32,60.41200991,,,,,,,,,,,,,,,,,,masks/mask_003.jpg,,,,,,,,,,,,,,,,,,,,,,,,,,,,,,,,,,,,,,,,,,,,,,,,0,4,4,2,1,,,,,,,,,,,,,,,,,,,,,,,,,,,,,,,,,,,,,,,,,
991761,001,2022-11-21_24h55.43.521,Info_measure_main_exp,2022.2.2,Win32,60.41200991,,,,,,,,,,,,,,,,,,,,,,,,,,,,,,6,0.7262,1,,,,,,,,,,,,1,131,5,5,2082,1,absent_patch/patch0002082.jpg,present_patch/cong_131_5_a.jpg,,,,,,,,,,,,,,,,,,,,0.166666667,0.087037016,1,0,0,response1disk,12,-0.012036995,-0.01203703,1,0,0,center_square,0,11,11,65,1,,,,,,,,,,,,,,,,,,,,,,,
991761,001,2022-11-21_24h55.43.521,Info_measure_main_exp,2022.2.2,Win32,60.41200991,,,,,,,,,,,,,,,,,,masks/mask_005.jpg,,,,,,,,,,,,,,,,,,,,,,,,,,,,,,,,,,,,,,,,,,,0,0,0,4,1,,,,,,,,,,,,,,,,,,,,,,,,,,,,,,,,,,,,,,,,,,,,,,
991761,001,2022-11-21_24h55.43.521,Info_measure_main_exp,2022.2.2,Win32,60.41200991,,,,,,,,,,,,,,,,,,masks/mask_001.jpg,,,,,,,,,,,,,,,,,,,,,,,,,,,,,,,,,,,,,,,,,,,0,1,1,0,1,,,,,,,,,,,,,,,,,,,,,,,,,,,,,,,,,,,,,,,,,,,,,,
991761,001,2022-11-21_24h55.43.521,Info_measure_main_exp,2022.2.2,Win32,60.41200991,,,,,,,,,,,,,,,,,,masks/mask_002.jpg,,,,,,,,,,,,,,,,,,,,,,,,,,,,,,,,,,,,,,,,,,,0,2,2,1,1,,,,,,,,,,,,,,,,,,,,,,,,,,,,,,,,,,,,,,,,,,,,,,
991761,001,2022-11-21_24h55.43.521,Info_measure_main_exp,2022.2.2,Win32,60.41200991,,,,,,,,,,,,,,,,,,masks/mask_003.jpg,,,,,,,,,,,,,,,,,,,,,,,,,,,,,,,,,,,,,,,,,,,0,3,3,2,1,,,,,,,,,,,,,,,,,,,,,,,,,,,,,,,,,,,,,,,,,,,,,,
991761,001,2022-11-21_24h55.43.521,Info_measure_main_exp,2022.2.2,Win32,60.41200991,,,,,,,,,,,,,,,,,,masks/mask_004.jpg,,,,,,,,,,,,,,,,,,,,,,,,,,,,,,,,,,,,,,,,,,,0,4,4,3,1,,,,,,,,,,,,,,,,,,,,,,,,,,,,,,,,,,,,,,,,,,,,,,
991761,001,2022-11-21_24h55.43.521,Info_measure_main_exp,2022.2.2,Win32,60.41200991,,,,,,,,,,,,,,,,,,masks/mask_002.jpg,,,,,,,,,,,,,,,,,,,,,,,,,,,,,,,,,,,,,,,,,,,,,,,,0,0,0,1,1,,,,,,,,,,,,,,,,,,,,,,,,,,,,,,,,,,,,,,,,,
991761,001,2022-11-21_24h55.43.521,Info_measure_main_exp,2022.2.2,Win32,60.41200991,,,,,,,,,,,,,,,,,,masks/mask_004.jpg,,,,,,,,,,,,,,,,,,,,,,,,,,,,,,,,,,,,,,,,,,,,,,,,0,1,1,3,1,,,,,,,,,,,,,,,,,,,,,,,,,,,,,,,,,,,,,,,,,
991761,001,2022-11-21_24h55.43.521,Info_measure_main_exp,2022.2.2,Win32,60.41200991,,,,,,,,,,,,,,,,,,masks/mask_003.jpg,,,,,,,,,,,,,,,,,,,,,,,,,,,,,,,,,,,,,,,,,,,,,,,,0,2,2,2,1,,,,,,,,,,,,,,,,,,,,,,,,,,,,,,,,,,,,,,,,,
991761,001,2022-11-21_24h55.43.521,Info_measure_main_exp,2022.2.2,Win32,60.41200991,,,,,,,,,,,,,,,,,,masks/mask_001.jpg,,,,,,,,,,,,,,,,,,,,,,,,,,,,,,,,,,,,,,,,,,,,,,,,0,3,3,0,1,,,,,,,,,,,,,,,,,,,,,,,,,,,,,,,,,,,,,,,,,
991761,001,2022-11-21_24h55.43.521,Info_measure_main_exp,2022.2.2,Win32,60.41200991,,,,,,,,,,,,,,,,,,masks/mask_005.jpg,,,,,,,,,,,,,,,,,,,,,,,,,,,,,,,,,,,,,,,,,,,,,,,,0,4,4,4,1,,,,,,,,,,,,,,,,,,,,,,,,,,,,,,,,,,,,,,,,,
991761,001,2022-11-21_24h55.43.521,Info_measure_main_exp,2022.2.2,Win32,60.41200991,,,,,,,,,,,,,,,,,,,,,,,,,,,,,,6,0.7256,1,,,,,,,,,,,,0,131,5,5,2154,2250,absent_patch/patch0002154.jpg,absent_patch/patch0002250.jpg,,,,,,,,,,,,,,,,,,,,0.148148148,0.071296303,1,0,0,response1disk,13,0.005555541,-0.000925947,1,0,0,center_square,0,12,12,108,1,,,,,,,,,,,,,,,,,,,,,,,
991761,001,2022-11-21_24h55.43.521,Info_measure_main_exp,2022.2.2,Win32,60.41200991,,,,,,,,,,,,,,,,,,masks/mask_004.jpg,,,,,,,,,,,,,,,,,,,,,,,,,,,,,,,,,,,,,,,,,,,0,0,0,3,1,,,,,,,,,,,,,,,,,,,,,,,,,,,,,,,,,,,,,,,,,,,,,,
991761,001,2022-11-21_24h55.43.521,Info_measure_main_exp,2022.2.2,Win32,60.41200991,,,,,,,,,,,,,,,,,,masks/mask_003.jpg,,,,,,,,,,,,,,,,,,,,,,,,,,,,,,,,,,,,,,,,,,,0,1,1,2,1,,,,,,,,,,,,,,,,,,,,,,,,,,,,,,,,,,,,,,,,,,,,,,
991761,001,2022-11-21_24h55.43.521,Info_measure_main_exp,2022.2.2,Win32,60.41200991,,,,,,,,,,,,,,,,,,masks/mask_005.jpg,,,,,,,,,,,,,,,,,,,,,,,,,,,,,,,,,,,,,,,,,,,0,2,2,4,1,,,,,,,,,,,,,,,,,,,,,,,,,,,,,,,,,,,,,,,,,,,,,,
991761,001,2022-11-21_24h55.43.521,Info_measure_main_exp,2022.2.2,Win32,60.41200991,,,,,,,,,,,,,,,,,,masks/mask_002.jpg,,,,,,,,,,,,,,,,,,,,,,,,,,,,,,,,,,,,,,,,,,,0,3,3,1,1,,,,,,,,,,,,,,,,,,,,,,,,,,,,,,,,,,,,,,,,,,,,,,
991761,001,2022-11-21_24h55.43.521,Info_measure_main_exp,2022.2.2,Win32,60.41200991,,,,,,,,,,,,,,,,,,masks/mask_001.jpg,,,,,,,,,,,,,,,,,,,,,,,,,,,,,,,,,,,,,,,,,,,0,4,4,0,1,,,,,,,,,,,,,,,,,,,,,,,,,,,,,,,,,,,,,,,,,,,,,,
991761,001,2022-11-21_24h55.43.521,Info_measure_main_exp,2022.2.2,Win32,60.41200991,,,,,,,,,,,,,,,,,,masks/mask_002.jpg,,,,,,,,,,,,,,,,,,,,,,,,,,,,,,,,,,,,,,,,,,,,,,,,0,0,0,1,1,,,,,,,,,,,,,,,,,,,,,,,,,,,,,,,,,,,,,,,,,
991761,001,2022-11-21_24h55.43.521,Info_measure_main_exp,2022.2.2,Win32,60.41200991,,,,,,,,,,,,,,,,,,masks/mask_004.jpg,,,,,,,,,,,,,,,,,,,,,,,,,,,,,,,,,,,,,,,,,,,,,,,,0,1,1,3,1,,,,,,,,,,,,,,,,,,,,,,,,,,,,,,,,,,,,,,,,,
991761,001,2022-11-21_24h55.43.521,Info_measure_main_exp,2022.2.2,Win32,60.41200991,,,,,,,,,,,,,,,,,,masks/mask_003.jpg,,,,,,,,,,,,,,,,,,,,,,,,,,,,,,,,,,,,,,,,,,,,,,,,0,2,2,2,1,,,,,,,,,,,,,,,,,,,,,,,,,,,,,,,,,,,,,,,,,
991761,001,2022-11-21_24h55.43.521,Info_measure_main_exp,2022.2.2,Win32,60.41200991,,,,,,,,,,,,,,,,,,masks/mask_005.jpg,,,,,,,,,,,,,,,,,,,,,,,,,,,,,,,,,,,,,,,,,,,,,,,,0,3,3,4,1,,,,,,,,,,,,,,,,,,,,,,,,,,,,,,,,,,,,,,,,,
991761,001,2022-11-21_24h55.43.521,Info_measure_main_exp,2022.2.2,Win32,60.41200991,,,,,,,,,,,,,,,,,,masks/mask_001.jpg,,,,,,,,,,,,,,,,,,,,,,,,,,,,,,,,,,,,,,,,,,,,,,,,0,4,4,0,1,,,,,,,,,,,,,,,,,,,,,,,,,,,,,,,,,,,,,,,,,
991761,001,2022-11-21_24h55.43.521,Info_measure_main_exp,2022.2.2,Win32,60.41200991,,,,,,,,,,,,,,,,,,,,,,,,,,,,,,6,0.7163,1,,,,,,,,,,,,1,131,5,5,2298,1,absent_patch/patch0002298.jpg,present_patch/cong_131_5_a.jpg,,,,,,,,,,,,,,,,,,,,0.145370413,0.037037037,1,0,0,response1disk,14,0.008333347,0.011111118,1,0,0,center_square,0,13,13,45,1,,,,,,,,,,,,,,,,,,,,,,,
991761,001,2022-11-21_24h55.43.521,Info_measure_main_exp,2022.2.2,Win32,60.41200991,,,,,,,,,,,,,,,,,,masks/mask_001.jpg,,,,,,,,,,,,,,,,,,,,,,,,,,,,,,,,,,,,,,,,,,,0,0,0,0,1,,,,,,,,,,,,,,,,,,,,,,,,,,,,,,,,,,,,,,,,,,,,,,
991761,001,2022-11-21_24h55.43.521,Info_measure_main_exp,2022.2.2,Win32,60.41200991,,,,,,,,,,,,,,,,,,masks/mask_003.jpg,,,,,,,,,,,,,,,,,,,,,,,,,,,,,,,,,,,,,,,,,,,0,1,1,2,1,,,,,,,,,,,,,,,,,,,,,,,,,,,,,,,,,,,,,,,,,,,,,,
991761,001,2022-11-21_24h55.43.521,Info_measure_main_exp,2022.2.2,Win32,60.41200991,,,,,,,,,,,,,,,,,,masks/mask_004.jpg,,,,,,,,,,,,,,,,,,,,,,,,,,,,,,,,,,,,,,,,,,,0,2,2,3,1,,,,,,,,,,,,,,,,,,,,,,,,,,,,,,,,,,,,,,,,,,,,,,
991761,001,2022-11-21_24h55.43.521,Info_measure_main_exp,2022.2.2,Win32,60.41200991,,,,,,,,,,,,,,,,,,masks/mask_005.jpg,,,,,,,,,,,,,,,,,,,,,,,,,,,,,,,,,,,,,,,,,,,0,3,3,4,1,,,,,,,,,,,,,,,,,,,,,,,,,,,,,,,,,,,,,,,,,,,,,,
991761,001,2022-11-21_24h55.43.521,Info_measure_main_exp,2022.2.2,Win32,60.41200991,,,,,,,,,,,,,,,,,,masks/mask_002.jpg,,,,,,,,,,,,,,,,,,,,,,,,,,,,,,,,,,,,,,,,,,,0,4,4,1,1,,,,,,,,,,,,,,,,,,,,,,,,,,,,,,,,,,,,,,,,,,,,,,
991761,001,2022-11-21_24h55.43.521,Info_measure_main_exp,2022.2.2,Win32,60.41200991,,,,,,,,,,,,,,,,,,masks/mask_004.jpg,,,,,,,,,,,,,,,,,,,,,,,,,,,,,,,,,,,,,,,,,,,,,,,,0,0,0,3,1,,,,,,,,,,,,,,,,,,,,,,,,,,,,,,,,,,,,,,,,,
991761,001,2022-11-21_24h55.43.521,Info_measure_main_exp,2022.2.2,Win32,60.41200991,,,,,,,,,,,,,,,,,,masks/mask_003.jpg,,,,,,,,,,,,,,,,,,,,,,,,,,,,,,,,,,,,,,,,,,,,,,,,0,1,1,2,1,,,,,,,,,,,,,,,,,,,,,,,,,,,,,,,,,,,,,,,,,
991761,001,2022-11-21_24h55.43.521,Info_measure_main_exp,2022.2.2,Win32,60.41200991,,,,,,,,,,,,,,,,,,masks/mask_002.jpg,,,,,,,,,,,,,,,,,,,,,,,,,,,,,,,,,,,,,,,,,,,,,,,,0,2,2,1,1,,,,,,,,,,,,,,,,,,,,,,,,,,,,,,,,,,,,,,,,,
991761,001,2022-11-21_24h55.43.521,Info_measure_main_exp,2022.2.2,Win32,60.41200991,,,,,,,,,,,,,,,,,,masks/mask_005.jpg,,,,,,,,,,,,,,,,,,,,,,,,,,,,,,,,,,,,,,,,,,,,,,,,0,3,3,4,1,,,,,,,,,,,,,,,,,,,,,,,,,,,,,,,,,,,,,,,,,
991761,001,2022-11-21_24h55.43.521,Info_measure_main_exp,2022.2.2,Win32,60.41200991,,,,,,,,,,,,,,,,,,masks/mask_001.jpg,,,,,,,,,,,,,,,,,,,,,,,,,,,,,,,,,,,,,,,,,,,,,,,,0,4,4,0,1,,,,,,,,,,,,,,,,,,,,,,,,,,,,,,,,,,,,,,,,,
991761,001,2022-11-21_24h55.43.521,Info_measure_main_exp,2022.2.2,Win32,60.41200991,,,,,,,,,,,,,,,,,,,,,,,,,,,,,,6,0.7832,1,,,,,,,,,,,,0,131,5,5,1974,2298,absent_patch/patch0001974.jpg,absent_patch/patch0002298.jpg,,,,,,,,,,,,,,,,,,,,0.094444487,0.048148155,1,0,0,response1disk,15,-0.002777735,0.011111118,1,0,0,center_square,0,14,14,6,1,,,,,,,,,,,,,,,,,,,,,,,
991761,001,2022-11-21_24h55.43.521,Info_measure_main_exp,2022.2.2,Win32,60.41200991,,,,,,,,,,,,,,,,,,masks/mask_002.jpg,,,,,,,,,,,,,,,,,,,,,,,,,,,,,,,,,,,,,,,,,,,0,0,0,1,1,,,,,,,,,,,,,,,,,,,,,,,,,,,,,,,,,,,,,,,,,,,,,,
991761,001,2022-11-21_24h55.43.521,Info_measure_main_exp,2022.2.2,Win32,60.41200991,,,,,,,,,,,,,,,,,,masks/mask_004.jpg,,,,,,,,,,,,,,,,,,,,,,,,,,,,,,,,,,,,,,,,,,,0,1,1,3,1,,,,,,,,,,,,,,,,,,,,,,,,,,,,,,,,,,,,,,,,,,,,,,
991761,001,2022-11-21_24h55.43.521,Info_measure_main_exp,2022.2.2,Win32,60.41200991,,,,,,,,,,,,,,,,,,masks/mask_001.jpg,,,,,,,,,,,,,,,,,,,,,,,,,,,,,,,,,,,,,,,,,,,0,2,2,0,1,,,,,,,,,,,,,,,,,,,,,,,,,,,,,,,,,,,,,,,,,,,,,,
991761,001,2022-11-21_24h55.43.521,Info_measure_main_exp,2022.2.2,Win32,60.41200991,,,,,,,,,,,,,,,,,,masks/mask_005.jpg,,,,,,,,,,,,,,,,,,,,,,,,,,,,,,,,,,,,,,,,,,,0,3,3,4,1,,,,,,,,,,,,,,,,,,,,,,,,,,,,,,,,,,,,,,,,,,,,,,
991761,001,2022-11-21_24h55.43.521,Info_measure_main_exp,2022.2.2,Win32,60.41200991,,,,,,,,,,,,,,,,,,masks/mask_003.jpg,,,,,,,,,,,,,,,,,,,,,,,,,,,,,,,,,,,,,,,,,,,0,4,4,2,1,,,,,,,,,,,,,,,,,,,,,,,,,,,,,,,,,,,,,,,,,,,,,,
991761,001,2022-11-21_24h55.43.521,Info_measure_main_exp,2022.2.2,Win32,60.41200991,,,,,,,,,,,,,,,,,,masks/mask_002.jpg,,,,,,,,,,,,,,,,,,,,,,,,,,,,,,,,,,,,,,,,,,,,,,,,0,0,0,1,1,,,,,,,,,,,,,,,,,,,,,,,,,,,,,,,,,,,,,,,,,
991761,001,2022-11-21_24h55.43.521,Info_measure_main_exp,2022.2.2,Win32,60.41200991,,,,,,,,,,,,,,,,,,masks/mask_005.jpg,,,,,,,,,,,,,,,,,,,,,,,,,,,,,,,,,,,,,,,,,,,,,,,,0,1,1,4,1,,,,,,,,,,,,,,,,,,,,,,,,,,,,,,,,,,,,,,,,,
991761,001,2022-11-21_24h55.43.521,Info_measure_main_exp,2022.2.2,Win32,60.41200991,,,,,,,,,,,,,,,,,,masks/mask_004.jpg,,,,,,,,,,,,,,,,,,,,,,,,,,,,,,,,,,,,,,,,,,,,,,,,0,2,2,3,1,,,,,,,,,,,,,,,,,,,,,,,,,,,,,,,,,,,,,,,,,
991761,001,2022-11-21_24h55.43.521,Info_measure_main_exp,2022.2.2,Win32,60.41200991,,,,,,,,,,,,,,,,,,masks/mask_001.jpg,,,,,,,,,,,,,,,,,,,,,,,,,,,,,,,,,,,,,,,,,,,,,,,,0,3,3,0,1,,,,,,,,,,,,,,,,,,,,,,,,,,,,,,,,,,,,,,,,,
991761,001,2022-11-21_24h55.43.521,Info_measure_main_exp,2022.2.2,Win32,60.41200991,,,,,,,,,,,,,,,,,,masks/mask_003.jpg,,,,,,,,,,,,,,,,,,,,,,,,,,,,,,,,,,,,,,,,,,,,,,,,0,4,4,2,1,,,,,,,,,,,,,,,,,,,,,,,,,,,,,,,,,,,,,,,,,
991761,001,2022-11-21_24h55.43.521,Info_measure_main_exp,2022.2.2,Win32,60.41200991,,,,,,,,,,,,,,,,,,,,,,,,,,,,,,6,4.675,1,,,,,,,,,,,,0,131,5,5,1986,1950,absent_patch/patch0001986.jpg,absent_patch/patch0001950.jpg,,,,,,,,,,,,,,,,,,,,0.137037065,0.087037016,1,0,0,response1disk,16,-0.002777735,0.003703683,1,0,0,center_square,0,15,15,15,1,,,,,,,,,,,,,,,,,,,,,,,
991761,001,2022-11-21_24h55.43.521,Info_measure_main_exp,2022.2.2,Win32,60.41200991,,,,,,,,,,,,,,,,,,masks/mask_001.jpg,,,,,,,,,,,,,,,,,,,,,,,,,,,,,,,,,,,,,,,,,,,0,0,0,0,1,,,,,,,,,,,,,,,,,,,,,,,,,,,,,,,,,,,,,,,,,,,,,,
991761,001,2022-11-21_24h55.43.521,Info_measure_main_exp,2022.2.2,Win32,60.41200991,,,,,,,,,,,,,,,,,,masks/mask_004.jpg,,,,,,,,,,,,,,,,,,,,,,,,,,,,,,,,,,,,,,,,,,,0,1,1,3,1,,,,,,,,,,,,,,,,,,,,,,,,,,,,,,,,,,,,,,,,,,,,,,
991761,001,2022-11-21_24h55.43.521,Info_measure_main_exp,2022.2.2,Win32,60.41200991,,,,,,,,,,,,,,,,,,masks/mask_003.jpg,,,,,,,,,,,,,,,,,,,,,,,,,,,,,,,,,,,,,,,,,,,0,2,2,2,1,,,,,,,,,,,,,,,,,,,,,,,,,,,,,,,,,,,,,,,,,,,,,,
991761,001,2022-11-21_24h55.43.521,Info_measure_main_exp,2022.2.2,Win32,60.41200991,,,,,,,,,,,,,,,,,,masks/mask_005.jpg,,,,,,,,,,,,,,,,,,,,,,,,,,,,,,,,,,,,,,,,,,,0,3,3,4,1,,,,,,,,,,,,,,,,,,,,,,,,,,,,,,,,,,,,,,,,,,,,,,
991761,001,2022-11-21_24h55.43.521,Info_measure_main_exp,2022.2.2,Win32,60.41200991,,,,,,,,,,,,,,,,,,masks/mask_002.jpg,,,,,,,,,,,,,,,,,,,,,,,,,,,,,,,,,,,,,,,,,,,0,4,4,1,1,,,,,,,,,,,,,,,,,,,,,,,,,,,,,,,,,,,,,,,,,,,,,,
991761,001,2022-11-21_24h55.43.521,Info_measure_main_exp,2022.2.2,Win32,60.41200991,,,,,,,,,,,,,,,,,,masks/mask_003.jpg,,,,,,,,,,,,,,,,,,,,,,,,,,,,,,,,,,,,,,,,,,,,,,,,0,0,0,2,1,,,,,,,,,,,,,,,,,,,,,,,,,,,,,,,,,,,,,,,,,
991761,001,2022-11-21_24h55.43.521,Info_measure_main_exp,2022.2.2,Win32,60.41200991,,,,,,,,,,,,,,,,,,masks/mask_001.jpg,,,,,,,,,,,,,,,,,,,,,,,,,,,,,,,,,,,,,,,,,,,,,,,,0,1,1,0,1,,,,,,,,,,,,,,,,,,,,,,,,,,,,,,,,,,,,,,,,,
991761,001,2022-11-21_24h55.43.521,Info_measure_main_exp,2022.2.2,Win32,60.41200991,,,,,,,,,,,,,,,,,,masks/mask_002.jpg,,,,,,,,,,,,,,,,,,,,,,,,,,,,,,,,,,,,,,,,,,,,,,,,0,2,2,1,1,,,,,,,,,,,,,,,,,,,,,,,,,,,,,,,,,,,,,,,,,
991761,001,2022-11-21_24h55.43.521,Info_measure_main_exp,2022.2.2,Win32,60.41200991,,,,,,,,,,,,,,,,,,masks/mask_004.jpg,,,,,,,,,,,,,,,,,,,,,,,,,,,,,,,,,,,,,,,,,,,,,,,,0,3,3,3,1,,,,,,,,,,,,,,,,,,,,,,,,,,,,,,,,,,,,,,,,,
991761,001,2022-11-21_24h55.43.521,Info_measure_main_exp,2022.2.2,Win32,60.41200991,,,,,,,,,,,,,,,,,,masks/mask_005.jpg,,,,,,,,,,,,,,,,,,,,,,,,,,,,,,,,,,,,,,,,,,,,,,,,0,4,4,4,1,,,,,,,,,,,,,,,,,,,,,,,,,,,,,,,,,,,,,,,,,
991761,001,2022-11-21_24h55.43.521,Info_measure_main_exp,2022.2.2,Win32,60.41200991,,,,,,,,,,,,,,,,,,,,,,,,,,,,,,6,0.6167,1,,,,,,,,,,,,0,131,5,5,2298,2190,absent_patch/patch0002298.jpg,absent_patch/patch0002190.jpg,,,,,,,,,,,,,,,,,,,,0.150925954,0.062962956,1,0,0,response1disk,17,0.005555541,0.006481489,1,0,0,center_square,0,16,16,20,1,,,,,,,,,,,,,,,,,,,,,,,
991761,001,2022-11-21_24h55.43.521,Info_measure_main_exp,2022.2.2,Win32,60.41200991,,,,,,,,,,,,,,,,,,masks/mask_002.jpg,,,,,,,,,,,,,,,,,,,,,,,,,,,,,,,,,,,,,,,,,,,0,0,0,1,1,,,,,,,,,,,,,,,,,,,,,,,,,,,,,,,,,,,,,,,,,,,,,,
991761,001,2022-11-21_24h55.43.521,Info_measure_main_exp,2022.2.2,Win32,60.41200991,,,,,,,,,,,,,,,,,,masks/mask_001.jpg,,,,,,,,,,,,,,,,,,,,,,,,,,,,,,,,,,,,,,,,,,,0,1,1,0,1,,,,,,,,,,,,,,,,,,,,,,,,,,,,,,,,,,,,,,,,,,,,,,
991761,001,2022-11-21_24h55.43.521,Info_measure_main_exp,2022.2.2,Win32,60.41200991,,,,,,,,,,,,,,,,,,masks/mask_003.jpg,,,,,,,,,,,,,,,,,,,,,,,,,,,,,,,,,,,,,,,,,,,0,2,2,2,1,,,,,,,,,,,,,,,,,,,,,,,,,,,,,,,,,,,,,,,,,,,,,,
991761,001,2022-11-21_24h55.43.521,Info_measure_main_exp,2022.2.2,Win32,60.41200991,,,,,,,,,,,,,,,,,,masks/mask_004.jpg,,,,,,,,,,,,,,,,,,,,,,,,,,,,,,,,,,,,,,,,,,,0,3,3,3,1,,,,,,,,,,,,,,,,,,,,,,,,,,,,,,,,,,,,,,,,,,,,,,
991761,001,2022-11-21_24h55.43.521,Info_measure_main_exp,2022.2.2,Win32,60.41200991,,,,,,,,,,,,,,,,,,masks/mask_005.jpg,,,,,,,,,,,,,,,,,,,,,,,,,,,,,,,,,,,,,,,,,,,0,4,4,4,1,,,,,,,,,,,,,,,,,,,,,,,,,,,,,,,,,,,,,,,,,,,,,,
991761,001,2022-11-21_24h55.43.521,Info_measure_main_exp,2022.2.2,Win32,60.41200991,,,,,,,,,,,,,,,,,,masks/mask_001.jpg,,,,,,,,,,,,,,,,,,,,,,,,,,,,,,,,,,,,,,,,,,,,,,,,0,0,0,0,1,,,,,,,,,,,,,,,,,,,,,,,,,,,,,,,,,,,,,,,,,
991761,001,2022-11-21_24h55.43.521,Info_measure_main_exp,2022.2.2,Win32,60.41200991,,,,,,,,,,,,,,,,,,masks/mask_003.jpg,,,,,,,,,,,,,,,,,,,,,,,,,,,,,,,,,,,,,,,,,,,,,,,,0,1,1,2,1,,,,,,,,,,,,,,,,,,,,,,,,,,,,,,,,,,,,,,,,,
991761,001,2022-11-21_24h55.43.521,Info_measure_main_exp,2022.2.2,Win32,60.41200991,,,,,,,,,,,,,,,,,,masks/mask_004.jpg,,,,,,,,,,,,,,,,,,,,,,,,,,,,,,,,,,,,,,,,,,,,,,,,0,2,2,3,1,,,,,,,,,,,,,,,,,,,,,,,,,,,,,,,,,,,,,,,,,
991761,001,2022-11-21_24h55.43.521,Info_measure_main_exp,2022.2.2,Win32,60.41200991,,,,,,,,,,,,,,,,,,masks/mask_002.jpg,,,,,,,,,,,,,,,,,,,,,,,,,,,,,,,,,,,,,,,,,,,,,,,,0,3,3,1,1,,,,,,,,,,,,,,,,,,,,,,,,,,,,,,,,,,,,,,,,,
991761,001,2022-11-21_24h55.43.521,Info_measure_main_exp,2022.2.2,Win32,60.41200991,,,,,,,,,,,,,,,,,,masks/mask_005.jpg,,,,,,,,,,,,,,,,,,,,,,,,,,,,,,,,,,,,,,,,,,,,,,,,0,4,4,4,1,,,,,,,,,,,,,,,,,,,,,,,,,,,,,,,,,,,,,,,,,
991761,001,2022-11-21_24h55.43.521,Info_measure_main_exp,2022.2.2,Win32,60.41200991,,,,,,,,,,,,,,,,,,,,,,,,,,,,,,6,0.7825,1,,,,,,,,,,,,0,131,5,5,2238,2298,absent_patch/patch0002238.jpg,absent_patch/patch0002298.jpg,,,,,,,,,,,,,,,,,,,,0.169444473,0.047222208,1,0,0,response1disk,18,0,-0.006481489,1,0,0,center_square,0,17,17,51,1,,,,,,,,,,,,,,,,,,,,,,,
991761,001,2022-11-21_24h55.43.521,Info_measure_main_exp,2022.2.2,Win32,60.41200991,,,,,,,,,,,,,,,,,,masks/mask_001.jpg,,,,,,,,,,,,,,,,,,,,,,,,,,,,,,,,,,,,,,,,,,,0,0,0,0,1,,,,,,,,,,,,,,,,,,,,,,,,,,,,,,,,,,,,,,,,,,,,,,
991761,001,2022-11-21_24h55.43.521,Info_measure_main_exp,2022.2.2,Win32,60.41200991,,,,,,,,,,,,,,,,,,masks/mask_003.jpg,,,,,,,,,,,,,,,,,,,,,,,,,,,,,,,,,,,,,,,,,,,0,1,1,2,1,,,,,,,,,,,,,,,,,,,,,,,,,,,,,,,,,,,,,,,,,,,,,,
991761,001,2022-11-21_24h55.43.521,Info_measure_main_exp,2022.2.2,Win32,60.41200991,,,,,,,,,,,,,,,,,,masks/mask_002.jpg,,,,,,,,,,,,,,,,,,,,,,,,,,,,,,,,,,,,,,,,,,,0,2,2,1,1,,,,,,,,,,,,,,,,,,,,,,,,,,,,,,,,,,,,,,,,,,,,,,
991761,001,2022-11-21_24h55.43.521,Info_measure_main_exp,2022.2.2,Win32,60.41200991,,,,,,,,,,,,,,,,,,masks/mask_004.jpg,,,,,,,,,,,,,,,,,,,,,,,,,,,,,,,,,,,,,,,,,,,0,3,3,3,1,,,,,,,,,,,,,,,,,,,,,,,,,,,,,,,,,,,,,,,,,,,,,,
991761,001,2022-11-21_24h55.43.521,Info_measure_main_exp,2022.2.2,Win32,60.41200991,,,,,,,,,,,,,,,,,,masks/mask_005.jpg,,,,,,,,,,,,,,,,,,,,,,,,,,,,,,,,,,,,,,,,,,,0,4,4,4,1,,,,,,,,,,,,,,,,,,,,,,,,,,,,,,,,,,,,,,,,,,,,,,
991761,001,2022-11-21_24h55.43.521,Info_measure_main_exp,2022.2.2,Win32,60.41200991,,,,,,,,,,,,,,,,,,masks/mask_004.jpg,,,,,,,,,,,,,,,,,,,,,,,,,,,,,,,,,,,,,,,,,,,,,,,,0,0,0,3,1,,,,,,,,,,,,,,,,,,,,,,,,,,,,,,,,,,,,,,,,,
991761,001,2022-11-21_24h55.43.521,Info_measure_main_exp,2022.2.2,Win32,60.41200991,,,,,,,,,,,,,,,,,,masks/mask_005.jpg,,,,,,,,,,,,,,,,,,,,,,,,,,,,,,,,,,,,,,,,,,,,,,,,0,1,1,4,1,,,,,,,,,,,,,,,,,,,,,,,,,,,,,,,,,,,,,,,,,
991761,001,2022-11-21_24h55.43.521,Info_measure_main_exp,2022.2.2,Win32,60.41200991,,,,,,,,,,,,,,,,,,masks/mask_003.jpg,,,,,,,,,,,,,,,,,,,,,,,,,,,,,,,,,,,,,,,,,,,,,,,,0,2,2,2,1,,,,,,,,,,,,,,,,,,,,,,,,,,,,,,,,,,,,,,,,,
991761,001,2022-11-21_24h55.43.521,Info_measure_main_exp,2022.2.2,Win32,60.41200991,,,,,,,,,,,,,,,,,,masks/mask_002.jpg,,,,,,,,,,,,,,,,,,,,,,,,,,,,,,,,,,,,,,,,,,,,,,,,0,3,3,1,1,,,,,,,,,,,,,,,,,,,,,,,,,,,,,,,,,,,,,,,,,
991761,001,2022-11-21_24h55.43.521,Info_measure_main_exp,2022.2.2,Win32,60.41200991,,,,,,,,,,,,,,,,,,masks/mask_001.jpg,,,,,,,,,,,,,,,,,,,,,,,,,,,,,,,,,,,,,,,,,,,,,,,,0,4,4,0,1,,,,,,,,,,,,,,,,,,,,,,,,,,,,,,,,,,,,,,,,,
991761,001,2022-11-21_24h55.43.521,Info_measure_main_exp,2022.2.2,Win32,60.41200991,,,,,,,,,,,,,,,,,,,,,,,,,,,,,,5,1.1335,1,,,,,,,,,,,,0,131,5,5,2274,2250,absent_patch/patch0002274.jpg,absent_patch/patch0002250.jpg,,,,,,,,,,,,,,,,,,,,0.080555598,-0.055555556,1,0,0,response3disk,19,-0.003703718,0,1,0,0,center_square,0,18,18,28,1,,,,,,,,,,,,,,,,,,,,,,,
991761,001,2022-11-21_24h55.43.521,Info_measure_main_exp,2022.2.2,Win32,60.41200991,,,,,,,,,,,,,,,,,,masks/mask_001.jpg,,,,,,,,,,,,,,,,,,,,,,,,,,,,,,,,,,,,,,,,,,,0,0,0,0,1,,,,,,,,,,,,,,,,,,,,,,,,,,,,,,,,,,,,,,,,,,,,,,
991761,001,2022-11-21_24h55.43.521,Info_measure_main_exp,2022.2.2,Win32,60.41200991,,,,,,,,,,,,,,,,,,masks/mask_005.jpg,,,,,,,,,,,,,,,,,,,,,,,,,,,,,,,,,,,,,,,,,,,0,1,1,4,1,,,,,,,,,,,,,,,,,,,,,,,,,,,,,,,,,,,,,,,,,,,,,,
991761,001,2022-11-21_24h55.43.521,Info_measure_main_exp,2022.2.2,Win32,60.41200991,,,,,,,,,,,,,,,,,,masks/mask_004.jpg,,,,,,,,,,,,,,,,,,,,,,,,,,,,,,,,,,,,,,,,,,,0,2,2,3,1,,,,,,,,,,,,,,,,,,,,,,,,,,,,,,,,,,,,,,,,,,,,,,
991761,001,2022-11-21_24h55.43.521,Info_measure_main_exp,2022.2.2,Win32,60.41200991,,,,,,,,,,,,,,,,,,masks/mask_003.jpg,,,,,,,,,,,,,,,,,,,,,,,,,,,,,,,,,,,,,,,,,,,0,3,3,2,1,,,,,,,,,,,,,,,,,,,,,,,,,,,,,,,,,,,,,,,,,,,,,,
991761,001,2022-11-21_24h55.43.521,Info_measure_main_exp,2022.2.2,Win32,60.41200991,,,,,,,,,,,,,,,,,,masks/mask_002.jpg,,,,,,,,,,,,,,,,,,,,,,,,,,,,,,,,,,,,,,,,,,,0,4,4,1,1,,,,,,,,,,,,,,,,,,,,,,,,,,,,,,,,,,,,,,,,,,,,,,
991761,001,2022-11-21_24h55.43.521,Info_measure_main_exp,2022.2.2,Win32,60.41200991,,,,,,,,,,,,,,,,,,masks/mask_004.jpg,,,,,,,,,,,,,,,,,,,,,,,,,,,,,,,,,,,,,,,,,,,,,,,,0,0,0,3,1,,,,,,,,,,,,,,,,,,,,,,,,,,,,,,,,,,,,,,,,,
991761,001,2022-11-21_24h55.43.521,Info_measure_main_exp,2022.2.2,Win32,60.41200991,,,,,,,,,,,,,,,,,,masks/mask_002.jpg,,,,,,,,,,,,,,,,,,,,,,,,,,,,,,,,,,,,,,,,,,,,,,,,0,1,1,1,1,,,,,,,,,,,,,,,,,,,,,,,,,,,,,,,,,,,,,,,,,
991761,001,2022-11-21_24h55.43.521,Info_measure_main_exp,2022.2.2,Win32,60.41200991,,,,,,,,,,,,,,,,,,masks/mask_001.jpg,,,,,,,,,,,,,,,,,,,,,,,,,,,,,,,,,,,,,,,,,,,,,,,,0,2,2,0,1,,,,,,,,,,,,,,,,,,,,,,,,,,,,,,,,,,,,,,,,,
991761,001,2022-11-21_24h55.43.521,Info_measure_main_exp,2022.2.2,Win32,60.41200991,,,,,,,,,,,,,,,,,,masks/mask_005.jpg,,,,,,,,,,,,,,,,,,,,,,,,,,,,,,,,,,,,,,,,,,,,,,,,0,3,3,4,1,,,,,,,,,,,,,,,,,,,,,,,,,,,,,,,,,,,,,,,,,
991761,001,2022-11-21_24h55.43.521,Info_measure_main_exp,2022.2.2,Win32,60.41200991,,,,,,,,,,,,,,,,,,masks/mask_003.jpg,,,,,,,,,,,,,,,,,,,,,,,,,,,,,,,,,,,,,,,,,,,,,,,,0,4,4,2,1,,,,,,,,,,,,,,,,,,,,,,,,,,,,,,,,,,,,,,,,,
991761,001,2022-11-21_24h55.43.521,Info_measure_main_exp,2022.2.2,Win32,60.41200991,,,,,,,,,,,,,,,,,,,,,,,,,,,,,,4,0.6409,1,,,,,,,,,,,,0,131,5,5,2274,2154,absent_patch/patch0002274.jpg,absent_patch/patch0002154.jpg,,,,,,,,,,,,,,,,,,,,0.036111125,-0.077777792,1,0,0,response3disk,20,0.005555541,0.0074074,1,0,0,center_square,0,19,19,23,1,,,,,,,,,,,,,,,,,,,,,,,
991761,001,2022-11-21_24h55.43.521,Info_measure_main_exp,2022.2.2,Win32,60.41200991,,,,,,,,,,,,,,,,,,masks/mask_002.jpg,,,,,,,,,,,,,,,,,,,,,,,,,,,,,,,,,,,,,,,,,,,0,0,0,1,1,,,,,,,,,,,,,,,,,,,,,,,,,,,,,,,,,,,,,,,,,,,,,,
991761,001,2022-11-21_24h55.43.521,Info_measure_main_exp,2022.2.2,Win32,60.41200991,,,,,,,,,,,,,,,,,,masks/mask_005.jpg,,,,,,,,,,,,,,,,,,,,,,,,,,,,,,,,,,,,,,,,,,,0,1,1,4,1,,,,,,,,,,,,,,,,,,,,,,,,,,,,,,,,,,,,,,,,,,,,,,
991761,001,2022-11-21_24h55.43.521,Info_measure_main_exp,2022.2.2,Win32,60.41200991,,,,,,,,,,,,,,,,,,masks/mask_004.jpg,,,,,,,,,,,,,,,,,,,,,,,,,,,,,,,,,,,,,,,,,,,0,2,2,3,1,,,,,,,,,,,,,,,,,,,,,,,,,,,,,,,,,,,,,,,,,,,,,,
991761,001,2022-11-21_24h55.43.521,Info_measure_main_exp,2022.2.2,Win32,60.41200991,,,,,,,,,,,,,,,,,,masks/mask_003.jpg,,,,,,,,,,,,,,,,,,,,,,,,,,,,,,,,,,,,,,,,,,,0,3,3,2,1,,,,,,,,,,,,,,,,,,,,,,,,,,,,,,,,,,,,,,,,,,,,,,
991761,001,2022-11-21_24h55.43.521,Info_measure_main_exp,2022.2.2,Win32,60.41200991,,,,,,,,,,,,,,,,,,masks/mask_001.jpg,,,,,,,,,,,,,,,,,,,,,,,,,,,,,,,,,,,,,,,,,,,0,4,4,0,1,,,,,,,,,,,,,,,,,,,,,,,,,,,,,,,,,,,,,,,,,,,,,,
991761,001,2022-11-21_24h55.43.521,Info_measure_main_exp,2022.2.2,Win32,60.41200991,,,,,,,,,,,,,,,,,,masks/mask_005.jpg,,,,,,,,,,,,,,,,,,,,,,,,,,,,,,,,,,,,,,,,,,,,,,,,0,0,0,4,1,,,,,,,,,,,,,,,,,,,,,,,,,,,,,,,,,,,,,,,,,
991761,001,2022-11-21_24h55.43.521,Info_measure_main_exp,2022.2.2,Win32,60.41200991,,,,,,,,,,,,,,,,,,masks/mask_003.jpg,,,,,,,,,,,,,,,,,,,,,,,,,,,,,,,,,,,,,,,,,,,,,,,,0,1,1,2,1,,,,,,,,,,,,,,,,,,,,,,,,,,,,,,,,,,,,,,,,,
991761,001,2022-11-21_24h55.43.521,Info_measure_main_exp,2022.2.2,Win32,60.41200991,,,,,,,,,,,,,,,,,,masks/mask_002.jpg,,,,,,,,,,,,,,,,,,,,,,,,,,,,,,,,,,,,,,,,,,,,,,,,0,2,2,1,1,,,,,,,,,,,,,,,,,,,,,,,,,,,,,,,,,,,,,,,,,
991761,001,2022-11-21_24h55.43.521,Info_measure_main_exp,2022.2.2,Win32,60.41200991,,,,,,,,,,,,,,,,,,masks/mask_004.jpg,,,,,,,,,,,,,,,,,,,,,,,,,,,,,,,,,,,,,,,,,,,,,,,,0,3,3,3,1,,,,,,,,,,,,,,,,,,,,,,,,,,,,,,,,,,,,,,,,,
991761,001,2022-11-21_24h55.43.521,Info_measure_main_exp,2022.2.2,Win32,60.41200991,,,,,,,,,,,,,,,,,,masks/mask_001.jpg,,,,,,,,,,,,,,,,,,,,,,,,,,,,,,,,,,,,,,,,,,,,,,,,0,4,4,0,1,,,,,,,,,,,,,,,,,,,,,,,,,,,,,,,,,,,,,,,,,
991761,001,2022-11-21_24h55.43.521,Info_measure_main_exp,2022.2.2,Win32,60.41200991,,,,,,,,,,,,,,,,,,,,,,,,,,,,,,6,0.7171,1,,,,,,,,,,,,1,131,5,5,1,1986,present_patch/cong_131_5_a.jpg,absent_patch/patch0001986.jpg,,,,,,,,,,,,,,,,,,,,0.123148176,0.020370377,1,0,0,response1disk,21,-0.008333347,-0.009259259,1,0,0,center_square,0,20,20,106,1,,,,,,,,,,,,,,,,,,,,,,,
991761,001,2022-11-21_24h55.43.521,Info_measure_main_exp,2022.2.2,Win32,60.41200991,,,,,,,,,,,,,,,,,,masks/mask_001.jpg,,,,,,,,,,,,,,,,,,,,,,,,,,,,,,,,,,,,,,,,,,,0,0,0,0,1,,,,,,,,,,,,,,,,,,,,,,,,,,,,,,,,,,,,,,,,,,,,,,
991761,001,2022-11-21_24h55.43.521,Info_measure_main_exp,2022.2.2,Win32,60.41200991,,,,,,,,,,,,,,,,,,masks/mask_002.jpg,,,,,,,,,,,,,,,,,,,,,,,,,,,,,,,,,,,,,,,,,,,0,1,1,1,1,,,,,,,,,,,,,,,,,,,,,,,,,,,,,,,,,,,,,,,,,,,,,,
991761,001,2022-11-21_24h55.43.521,Info_measure_main_exp,2022.2.2,Win32,60.41200991,,,,,,,,,,,,,,,,,,masks/mask_005.jpg,,,,,,,,,,,,,,,,,,,,,,,,,,,,,,,,,,,,,,,,,,,0,2,2,4,1,,,,,,,,,,,,,,,,,,,,,,,,,,,,,,,,,,,,,,,,,,,,,,
991761,001,2022-11-21_24h55.43.521,Info_measure_main_exp,2022.2.2,Win32,60.41200991,,,,,,,,,,,,,,,,,,masks/mask_004.jpg,,,,,,,,,,,,,,,,,,,,,,,,,,,,,,,,,,,,,,,,,,,0,3,3,3,1,,,,,,,,,,,,,,,,,,,,,,,,,,,,,,,,,,,,,,,,,,,,,,
991761,001,2022-11-21_24h55.43.521,Info_measure_main_exp,2022.2.2,Win32,60.41200991,,,,,,,,,,,,,,,,,,masks/mask_003.jpg,,,,,,,,,,,,,,,,,,,,,,,,,,,,,,,,,,,,,,,,,,,0,4,4,2,1,,,,,,,,,,,,,,,,,,,,,,,,,,,,,,,,,,,,,,,,,,,,,,
991761,001,2022-11-21_24h55.43.521,Info_measure_main_exp,2022.2.2,Win32,60.41200991,,,,,,,,,,,,,,,,,,masks/mask_001.jpg,,,,,,,,,,,,,,,,,,,,,,,,,,,,,,,,,,,,,,,,,,,,,,,,0,0,0,0,1,,,,,,,,,,,,,,,,,,,,,,,,,,,,,,,,,,,,,,,,,
991761,001,2022-11-21_24h55.43.521,Info_measure_main_exp,2022.2.2,Win32,60.41200991,,,,,,,,,,,,,,,,,,masks/mask_005.jpg,,,,,,,,,,,,,,,,,,,,,,,,,,,,,,,,,,,,,,,,,,,,,,,,0,1,1,4,1,,,,,,,,,,,,,,,,,,,,,,,,,,,,,,,,,,,,,,,,,
991761,001,2022-11-21_24h55.43.521,Info_measure_main_exp,2022.2.2,Win32,60.41200991,,,,,,,,,,,,,,,,,,masks/mask_004.jpg,,,,,,,,,,,,,,,,,,,,,,,,,,,,,,,,,,,,,,,,,,,,,,,,0,2,2,3,1,,,,,,,,,,,,,,,,,,,,,,,,,,,,,,,,,,,,,,,,,
991761,001,2022-11-21_24h55.43.521,Info_measure_main_exp,2022.2.2,Win32,60.41200991,,,,,,,,,,,,,,,,,,masks/mask_002.jpg,,,,,,,,,,,,,,,,,,,,,,,,,,,,,,,,,,,,,,,,,,,,,,,,0,3,3,1,1,,,,,,,,,,,,,,,,,,,,,,,,,,,,,,,,,,,,,,,,,
991761,001,2022-11-21_24h55.43.521,Info_measure_main_exp,2022.2.2,Win32,60.41200991,,,,,,,,,,,,,,,,,,masks/mask_003.jpg,,,,,,,,,,,,,,,,,,,,,,,,,,,,,,,,,,,,,,,,,,,,,,,,0,4,4,2,1,,,,,,,,,,,,,,,,,,,,,,,,,,,,,,,,,,,,,,,,,
991761,001,2022-11-21_24h55.43.521,Info_measure_main_exp,2022.2.2,Win32,60.41200991,,,,,,,,,,,,,,,,,,,,,,,,,,,,,,6,0.7666,1,,,,,,,,,,,,0,131,5,5,2250,2178,absent_patch/patch0002250.jpg,absent_patch/patch0002178.jpg,,,,,,,,,,,,,,,,,,,,0.122222265,0.032407407,1,0,0,response1disk,22,0.001851894,0.0074074,1,0,0,center_square,0,21,21,48,1,,,,,,,,,,,,,,,,,,,,,,,
991761,001,2022-11-21_24h55.43.521,Info_measure_main_exp,2022.2.2,Win32,60.41200991,,,,,,,,,,,,,,,,,,masks/mask_005.jpg,,,,,,,,,,,,,,,,,,,,,,,,,,,,,,,,,,,,,,,,,,,0,0,0,4,1,,,,,,,,,,,,,,,,,,,,,,,,,,,,,,,,,,,,,,,,,,,,,,
991761,001,2022-11-21_24h55.43.521,Info_measure_main_exp,2022.2.2,Win32,60.41200991,,,,,,,,,,,,,,,,,,masks/mask_001.jpg,,,,,,,,,,,,,,,,,,,,,,,,,,,,,,,,,,,,,,,,,,,0,1,1,0,1,,,,,,,,,,,,,,,,,,,,,,,,,,,,,,,,,,,,,,,,,,,,,,
991761,001,2022-11-21_24h55.43.521,Info_measure_main_exp,2022.2.2,Win32,60.41200991,,,,,,,,,,,,,,,,,,masks/mask_002.jpg,,,,,,,,,,,,,,,,,,,,,,,,,,,,,,,,,,,,,,,,,,,0,2,2,1,1,,,,,,,,,,,,,,,,,,,,,,,,,,,,,,,,,,,,,,,,,,,,,,
991761,001,2022-11-21_24h55.43.521,Info_measure_main_exp,2022.2.2,Win32,60.41200991,,,,,,,,,,,,,,,,,,masks/mask_003.jpg,,,,,,,,,,,,,,,,,,,,,,,,,,,,,,,,,,,,,,,,,,,0,3,3,2,1,,,,,,,,,,,,,,,,,,,,,,,,,,,,,,,,,,,,,,,,,,,,,,
991761,001,2022-11-21_24h55.43.521,Info_measure_main_exp,2022.2.2,Win32,60.41200991,,,,,,,,,,,,,,,,,,masks/mask_004.jpg,,,,,,,,,,,,,,,,,,,,,,,,,,,,,,,,,,,,,,,,,,,0,4,4,3,1,,,,,,,,,,,,,,,,,,,,,,,,,,,,,,,,,,,,,,,,,,,,,,
991761,001,2022-11-21_24h55.43.521,Info_measure_main_exp,2022.2.2,Win32,60.41200991,,,,,,,,,,,,,,,,,,masks/mask_004.jpg,,,,,,,,,,,,,,,,,,,,,,,,,,,,,,,,,,,,,,,,,,,,,,,,0,0,0,3,1,,,,,,,,,,,,,,,,,,,,,,,,,,,,,,,,,,,,,,,,,
991761,001,2022-11-21_24h55.43.521,Info_measure_main_exp,2022.2.2,Win32,60.41200991,,,,,,,,,,,,,,,,,,masks/mask_005.jpg,,,,,,,,,,,,,,,,,,,,,,,,,,,,,,,,,,,,,,,,,,,,,,,,0,1,1,4,1,,,,,,,,,,,,,,,,,,,,,,,,,,,,,,,,,,,,,,,,,
991761,001,2022-11-21_24h55.43.521,Info_measure_main_exp,2022.2.2,Win32,60.41200991,,,,,,,,,,,,,,,,,,masks/mask_003.jpg,,,,,,,,,,,,,,,,,,,,,,,,,,,,,,,,,,,,,,,,,,,,,,,,0,2,2,2,1,,,,,,,,,,,,,,,,,,,,,,,,,,,,,,,,,,,,,,,,,
991761,001,2022-11-21_24h55.43.521,Info_measure_main_exp,2022.2.2,Win32,60.41200991,,,,,,,,,,,,,,,,,,masks/mask_001.jpg,,,,,,,,,,,,,,,,,,,,,,,,,,,,,,,,,,,,,,,,,,,,,,,,0,3,3,0,1,,,,,,,,,,,,,,,,,,,,,,,,,,,,,,,,,,,,,,,,,
991761,001,2022-11-21_24h55.43.521,Info_measure_main_exp,2022.2.2,Win32,60.41200991,,,,,,,,,,,,,,,,,,masks/mask_002.jpg,,,,,,,,,,,,,,,,,,,,,,,,,,,,,,,,,,,,,,,,,,,,,,,,0,4,4,1,1,,,,,,,,,,,,,,,,,,,,,,,,,,,,,,,,,,,,,,,,,
991761,001,2022-11-21_24h55.43.521,Info_measure_main_exp,2022.2.2,Win32,60.41200991,,,,,,,,,,,,,,,,,,,,,,,,,,,,,,4,0.9671,1,,,,,,,,,,,,0,131,5,5,2250,2142,absent_patch/patch0002250.jpg,absent_patch/patch0002142.jpg,,,,,,,,,,,,,,,,,,,,0.029629672,-0.101851852,1,0,0,response3disk,23,-0.000925912,0.013888889,1,0,0,center_square,0,22,22,71,1,,,,,,,,,,,,,,,,,,,,,,,
991761,001,2022-11-21_24h55.43.521,Info_measure_main_exp,2022.2.2,Win32,60.41200991,,,,,,,,,,,,,,,,,,masks/mask_002.jpg,,,,,,,,,,,,,,,,,,,,,,,,,,,,,,,,,,,,,,,,,,,0,0,0,1,1,,,,,,,,,,,,,,,,,,,,,,,,,,,,,,,,,,,,,,,,,,,,,,
991761,001,2022-11-21_24h55.43.521,Info_measure_main_exp,2022.2.2,Win32,60.41200991,,,,,,,,,,,,,,,,,,masks/mask_005.jpg,,,,,,,,,,,,,,,,,,,,,,,,,,,,,,,,,,,,,,,,,,,0,1,1,4,1,,,,,,,,,,,,,,,,,,,,,,,,,,,,,,,,,,,,,,,,,,,,,,
991761,001,2022-11-21_24h55.43.521,Info_measure_main_exp,2022.2.2,Win32,60.41200991,,,,,,,,,,,,,,,,,,masks/mask_004.jpg,,,,,,,,,,,,,,,,,,,,,,,,,,,,,,,,,,,,,,,,,,,0,2,2,3,1,,,,,,,,,,,,,,,,,,,,,,,,,,,,,,,,,,,,,,,,,,,,,,
991761,001,2022-11-21_24h55.43.521,Info_measure_main_exp,2022.2.2,Win32,60.41200991,,,,,,,,,,,,,,,,,,masks/mask_001.jpg,,,,,,,,,,,,,,,,,,,,,,,,,,,,,,,,,,,,,,,,,,,0,3,3,0,1,,,,,,,,,,,,,,,,,,,,,,,,,,,,,,,,,,,,,,,,,,,,,,
991761,001,2022-11-21_24h55.43.521,Info_measure_main_exp,2022.2.2,Win32,60.41200991,,,,,,,,,,,,,,,,,,masks/mask_003.jpg,,,,,,,,,,,,,,,,,,,,,,,,,,,,,,,,,,,,,,,,,,,0,4,4,2,1,,,,,,,,,,,,,,,,,,,,,,,,,,,,,,,,,,,,,,,,,,,,,,
991761,001,2022-11-21_24h55.43.521,Info_measure_main_exp,2022.2.2,Win32,60.41200991,,,,,,,,,,,,,,,,,,masks/mask_005.jpg,,,,,,,,,,,,,,,,,,,,,,,,,,,,,,,,,,,,,,,,,,,,,,,,0,0,0,4,1,,,,,,,,,,,,,,,,,,,,,,,,,,,,,,,,,,,,,,,,,
991761,001,2022-11-21_24h55.43.521,Info_measure_main_exp,2022.2.2,Win32,60.41200991,,,,,,,,,,,,,,,,,,masks/mask_001.jpg,,,,,,,,,,,,,,,,,,,,,,,,,,,,,,,,,,,,,,,,,,,,,,,,0,1,1,0,1,,,,,,,,,,,,,,,,,,,,,,,,,,,,,,,,,,,,,,,,,
991761,001,2022-11-21_24h55.43.521,Info_measure_main_exp,2022.2.2,Win32,60.41200991,,,,,,,,,,,,,,,,,,masks/mask_003.jpg,,,,,,,,,,,,,,,,,,,,,,,,,,,,,,,,,,,,,,,,,,,,,,,,0,2,2,2,1,,,,,,,,,,,,,,,,,,,,,,,,,,,,,,,,,,,,,,,,,
991761,001,2022-11-21_24h55.43.521,Info_measure_main_exp,2022.2.2,Win32,60.41200991,,,,,,,,,,,,,,,,,,masks/mask_002.jpg,,,,,,,,,,,,,,,,,,,,,,,,,,,,,,,,,,,,,,,,,,,,,,,,0,3,3,1,1,,,,,,,,,,,,,,,,,,,,,,,,,,,,,,,,,,,,,,,,,
991761,001,2022-11-21_24h55.43.521,Info_measure_main_exp,2022.2.2,Win32,60.41200991,,,,,,,,,,,,,,,,,,masks/mask_004.jpg,,,,,,,,,,,,,,,,,,,,,,,,,,,,,,,,,,,,,,,,,,,,,,,,0,4,4,3,1,,,,,,,,,,,,,,,,,,,,,,,,,,,,,,,,,,,,,,,,,
991761,001,2022-11-21_24h55.43.521,Info_measure_main_exp,2022.2.2,Win32,60.41200991,,,,,,,,,,,,,,,,,,,,,,,,,,,,,,6,21.603,1,,,,,,,,,,,,0,131,5,5,2190,2166,absent_patch/patch0002190.jpg,absent_patch/patch0002166.jpg,,,,,,,,,,,,,,,,,,,,0.142592607,0.038888896,1,0,0,response1disk,24,-0.006481453,-0.000925947,1,0,0,center_square,0,23,23,50,1,,,,,,,,,,,,,,,,,,,,,,,
991761,001,2022-11-21_24h55.43.521,Info_measure_main_exp,2022.2.2,Win32,60.41200991,,,,,,,,,,,,,,,,,,masks/mask_003.jpg,,,,,,,,,,,,,,,,,,,,,,,,,,,,,,,,,,,,,,,,,,,0,0,0,2,1,,,,,,,,,,,,,,,,,,,,,,,,,,,,,,,,,,,,,,,,,,,,,,
991761,001,2022-11-21_24h55.43.521,Info_measure_main_exp,2022.2.2,Win32,60.41200991,,,,,,,,,,,,,,,,,,masks/mask_004.jpg,,,,,,,,,,,,,,,,,,,,,,,,,,,,,,,,,,,,,,,,,,,0,1,1,3,1,,,,,,,,,,,,,,,,,,,,,,,,,,,,,,,,,,,,,,,,,,,,,,
991761,001,2022-11-21_24h55.43.521,Info_measure_main_exp,2022.2.2,Win32,60.41200991,,,,,,,,,,,,,,,,,,masks/mask_005.jpg,,,,,,,,,,,,,,,,,,,,,,,,,,,,,,,,,,,,,,,,,,,0,2,2,4,1,,,,,,,,,,,,,,,,,,,,,,,,,,,,,,,,,,,,,,,,,,,,,,
991761,001,2022-11-21_24h55.43.521,Info_measure_main_exp,2022.2.2,Win32,60.41200991,,,,,,,,,,,,,,,,,,masks/mask_001.jpg,,,,,,,,,,,,,,,,,,,,,,,,,,,,,,,,,,,,,,,,,,,0,3,3,0,1,,,,,,,,,,,,,,,,,,,,,,,,,,,,,,,,,,,,,,,,,,,,,,
991761,001,2022-11-21_24h55.43.521,Info_measure_main_exp,2022.2.2,Win32,60.41200991,,,,,,,,,,,,,,,,,,masks/mask_002.jpg,,,,,,,,,,,,,,,,,,,,,,,,,,,,,,,,,,,,,,,,,,,0,4,4,1,1,,,,,,,,,,,,,,,,,,,,,,,,,,,,,,,,,,,,,,,,,,,,,,
991761,001,2022-11-21_24h55.43.521,Info_measure_main_exp,2022.2.2,Win32,60.41200991,,,,,,,,,,,,,,,,,,masks/mask_005.jpg,,,,,,,,,,,,,,,,,,,,,,,,,,,,,,,,,,,,,,,,,,,,,,,,0,0,0,4,1,,,,,,,,,,,,,,,,,,,,,,,,,,,,,,,,,,,,,,,,,
991761,001,2022-11-21_24h55.43.521,Info_measure_main_exp,2022.2.2,Win32,60.41200991,,,,,,,,,,,,,,,,,,masks/mask_004.jpg,,,,,,,,,,,,,,,,,,,,,,,,,,,,,,,,,,,,,,,,,,,,,,,,0,1,1,3,1,,,,,,,,,,,,,,,,,,,,,,,,,,,,,,,,,,,,,,,,,
991761,001,2022-11-21_24h55.43.521,Info_measure_main_exp,2022.2.2,Win32,60.41200991,,,,,,,,,,,,,,,,,,masks/mask_003.jpg,,,,,,,,,,,,,,,,,,,,,,,,,,,,,,,,,,,,,,,,,,,,,,,,0,2,2,2,1,,,,,,,,,,,,,,,,,,,,,,,,,,,,,,,,,,,,,,,,,
991761,001,2022-11-21_24h55.43.521,Info_measure_main_exp,2022.2.2,Win32,60.41200991,,,,,,,,,,,,,,,,,,masks/mask_002.jpg,,,,,,,,,,,,,,,,,,,,,,,,,,,,,,,,,,,,,,,,,,,,,,,,0,3,3,1,1,,,,,,,,,,,,,,,,,,,,,,,,,,,,,,,,,,,,,,,,,
991761,001,2022-11-21_24h55.43.521,Info_measure_main_exp,2022.2.2,Win32,60.41200991,,,,,,,,,,,,,,,,,,masks/mask_001.jpg,,,,,,,,,,,,,,,,,,,,,,,,,,,,,,,,,,,,,,,,,,,,,,,,0,4,4,0,1,,,,,,,,,,,,,,,,,,,,,,,,,,,,,,,,,,,,,,,,,
991761,001,2022-11-21_24h55.43.521,Info_measure_main_exp,2022.2.2,Win32,60.41200991,,,,,,,,,,,,,,,,,,,,,,,,,,,,,,6,0.8652,1,,,,,,,,,,,,0,131,5,5,2190,2250,absent_patch/patch0002190.jpg,absent_patch/patch0002250.jpg,,,,,,,,,,,,,,,,,,,,0.142592607,0.035185178,1,0,0,response1disk,25,0.002777806,0.001851859,1,0,0,center_square,0,24,24,93,1,,,,,,,,,,,,,,,,,,,,,,,
991761,001,2022-11-21_24h55.43.521,Info_measure_main_exp,2022.2.2,Win32,60.41200991,,,,,,,,,,,,,,,,,,masks/mask_001.jpg,,,,,,,,,,,,,,,,,,,,,,,,,,,,,,,,,,,,,,,,,,,0,0,0,0,1,,,,,,,,,,,,,,,,,,,,,,,,,,,,,,,,,,,,,,,,,,,,,,
991761,001,2022-11-21_24h55.43.521,Info_measure_main_exp,2022.2.2,Win32,60.41200991,,,,,,,,,,,,,,,,,,masks/mask_004.jpg,,,,,,,,,,,,,,,,,,,,,,,,,,,,,,,,,,,,,,,,,,,0,1,1,3,1,,,,,,,,,,,,,,,,,,,,,,,,,,,,,,,,,,,,,,,,,,,,,,
991761,001,2022-11-21_24h55.43.521,Info_measure_main_exp,2022.2.2,Win32,60.41200991,,,,,,,,,,,,,,,,,,masks/mask_003.jpg,,,,,,,,,,,,,,,,,,,,,,,,,,,,,,,,,,,,,,,,,,,0,2,2,2,1,,,,,,,,,,,,,,,,,,,,,,,,,,,,,,,,,,,,,,,,,,,,,,
991761,001,2022-11-21_24h55.43.521,Info_measure_main_exp,2022.2.2,Win32,60.41200991,,,,,,,,,,,,,,,,,,masks/mask_002.jpg,,,,,,,,,,,,,,,,,,,,,,,,,,,,,,,,,,,,,,,,,,,0,3,3,1,1,,,,,,,,,,,,,,,,,,,,,,,,,,,,,,,,,,,,,,,,,,,,,,
991761,001,2022-11-21_24h55.43.521,Info_measure_main_exp,2022.2.2,Win32,60.41200991,,,,,,,,,,,,,,,,,,masks/mask_005.jpg,,,,,,,,,,,,,,,,,,,,,,,,,,,,,,,,,,,,,,,,,,,0,4,4,4,1,,,,,,,,,,,,,,,,,,,,,,,,,,,,,,,,,,,,,,,,,,,,,,
991761,001,2022-11-21_24h55.43.521,Info_measure_main_exp,2022.2.2,Win32,60.41200991,,,,,,,,,,,,,,,,,,masks/mask_005.jpg,,,,,,,,,,,,,,,,,,,,,,,,,,,,,,,,,,,,,,,,,,,,,,,,0,0,0,4,1,,,,,,,,,,,,,,,,,,,,,,,,,,,,,,,,,,,,,,,,,
991761,001,2022-11-21_24h55.43.521,Info_measure_main_exp,2022.2.2,Win32,60.41200991,,,,,,,,,,,,,,,,,,masks/mask_003.jpg,,,,,,,,,,,,,,,,,,,,,,,,,,,,,,,,,,,,,,,,,,,,,,,,0,1,1,2,1,,,,,,,,,,,,,,,,,,,,,,,,,,,,,,,,,,,,,,,,,
991761,001,2022-11-21_24h55.43.521,Info_measure_main_exp,2022.2.2,Win32,60.41200991,,,,,,,,,,,,,,,,,,masks/mask_002.jpg,,,,,,,,,,,,,,,,,,,,,,,,,,,,,,,,,,,,,,,,,,,,,,,,0,2,2,1,1,,,,,,,,,,,,,,,,,,,,,,,,,,,,,,,,,,,,,,,,,
991761,001,2022-11-21_24h55.43.521,Info_measure_main_exp,2022.2.2,Win32,60.41200991,,,,,,,,,,,,,,,,,,masks/mask_004.jpg,,,,,,,,,,,,,,,,,,,,,,,,,,,,,,,,,,,,,,,,,,,,,,,,0,3,3,3,1,,,,,,,,,,,,,,,,,,,,,,,,,,,,,,,,,,,,,,,,,
991761,001,2022-11-21_24h55.43.521,Info_measure_main_exp,2022.2.2,Win32,60.41200991,,,,,,,,,,,,,,,,,,masks/mask_001.jpg,,,,,,,,,,,,,,,,,,,,,,,,,,,,,,,,,,,,,,,,,,,,,,,,0,4,4,0,1,,,,,,,,,,,,,,,,,,,,,,,,,,,,,,,,,,,,,,,,,
991761,001,2022-11-21_24h55.43.521,Info_measure_main_exp,2022.2.2,Win32,60.41200991,,,,,,,,,,,,,,,,,,,,,,,,,,,,,,7,0.8337,1,,,,,,,,,,,,0,131,5,5,2190,2178,absent_patch/patch0002190.jpg,absent_patch/patch0002178.jpg,,,,,,,,,,,,,,,,,,,,0.011111153,0.04074072,1,0,0,response1disk,26,0.000925912,0.010185171,1,0,0,center_square,0,25,25,14,1,,,,,,,,,,,,,,,,,,,,,,,
991761,001,2022-11-21_24h55.43.521,Info_measure_main_exp,2022.2.2,Win32,60.41200991,,,,,,,,,,,,,,,,,,masks/mask_001.jpg,,,,,,,,,,,,,,,,,,,,,,,,,,,,,,,,,,,,,,,,,,,0,0,0,0,1,,,,,,,,,,,,,,,,,,,,,,,,,,,,,,,,,,,,,,,,,,,,,,
991761,001,2022-11-21_24h55.43.521,Info_measure_main_exp,2022.2.2,Win32,60.41200991,,,,,,,,,,,,,,,,,,masks/mask_003.jpg,,,,,,,,,,,,,,,,,,,,,,,,,,,,,,,,,,,,,,,,,,,0,1,1,2,1,,,,,,,,,,,,,,,,,,,,,,,,,,,,,,,,,,,,,,,,,,,,,,
991761,001,2022-11-21_24h55.43.521,Info_measure_main_exp,2022.2.2,Win32,60.41200991,,,,,,,,,,,,,,,,,,masks/mask_005.jpg,,,,,,,,,,,,,,,,,,,,,,,,,,,,,,,,,,,,,,,,,,,0,2,2,4,1,,,,,,,,,,,,,,,,,,,,,,,,,,,,,,,,,,,,,,,,,,,,,,
991761,001,2022-11-21_24h55.43.521,Info_measure_main_exp,2022.2.2,Win32,60.41200991,,,,,,,,,,,,,,,,,,masks/mask_002.jpg,,,,,,,,,,,,,,,,,,,,,,,,,,,,,,,,,,,,,,,,,,,0,3,3,1,1,,,,,,,,,,,,,,,,,,,,,,,,,,,,,,,,,,,,,,,,,,,,,,
991761,001,2022-11-21_24h55.43.521,Info_measure_main_exp,2022.2.2,Win32,60.41200991,,,,,,,,,,,,,,,,,,masks/mask_004.jpg,,,,,,,,,,,,,,,,,,,,,,,,,,,,,,,,,,,,,,,,,,,0,4,4,3,1,,,,,,,,,,,,,,,,,,,,,,,,,,,,,,,,,,,,,,,,,,,,,,
991761,001,2022-11-21_24h55.43.521,Info_measure_main_exp,2022.2.2,Win32,60.41200991,,,,,,,,,,,,,,,,,,masks/mask_002.jpg,,,,,,,,,,,,,,,,,,,,,,,,,,,,,,,,,,,,,,,,,,,,,,,,0,0,0,1,1,,,,,,,,,,,,,,,,,,,,,,,,,,,,,,,,,,,,,,,,,
991761,001,2022-11-21_24h55.43.521,Info_measure_main_exp,2022.2.2,Win32,60.41200991,,,,,,,,,,,,,,,,,,masks/mask_005.jpg,,,,,,,,,,,,,,,,,,,,,,,,,,,,,,,,,,,,,,,,,,,,,,,,0,1,1,4,1,,,,,,,,,,,,,,,,,,,,,,,,,,,,,,,,,,,,,,,,,
991761,001,2022-11-21_24h55.43.521,Info_measure_main_exp,2022.2.2,Win32,60.41200991,,,,,,,,,,,,,,,,,,masks/mask_004.jpg,,,,,,,,,,,,,,,,,,,,,,,,,,,,,,,,,,,,,,,,,,,,,,,,0,2,2,3,1,,,,,,,,,,,,,,,,,,,,,,,,,,,,,,,,,,,,,,,,,
991761,001,2022-11-21_24h55.43.521,Info_measure_main_exp,2022.2.2,Win32,60.41200991,,,,,,,,,,,,,,,,,,masks/mask_001.jpg,,,,,,,,,,,,,,,,,,,,,,,,,,,,,,,,,,,,,,,,,,,,,,,,0,3,3,0,1,,,,,,,,,,,,,,,,,,,,,,,,,,,,,,,,,,,,,,,,,
991761,001,2022-11-21_24h55.43.521,Info_measure_main_exp,2022.2.2,Win32,60.41200991,,,,,,,,,,,,,,,,,,masks/mask_003.jpg,,,,,,,,,,,,,,,,,,,,,,,,,,,,,,,,,,,,,,,,,,,,,,,,0,4,4,2,1,,,,,,,,,,,,,,,,,,,,,,,,,,,,,,,,,,,,,,,,,
991761,001,2022-11-21_24h55.43.521,Info_measure_main_exp,2022.2.2,Win32,60.41200991,,,,,,,,,,,,,,,,,,,,,,,,,,,,,,7,0.4005,1,,,,,,,,,,,,0,131,5,5,1974,2166,absent_patch/patch0001974.jpg,absent_patch/patch0002166.jpg,,,,,,,,,,,,,,,,,,,,0.017592607,0.052777785,1,0,0,response1disk,27,-0.001851824,0.01203703,1,0,0,center_square,0,26,26,77,1,,,,,,,,,,,,,,,,,,,,,,,
991761,001,2022-11-21_24h55.43.521,Info_measure_main_exp,2022.2.2,Win32,60.41200991,,,,,,,,,,,,,,,,,,masks/mask_002.jpg,,,,,,,,,,,,,,,,,,,,,,,,,,,,,,,,,,,,,,,,,,,0,0,0,1,1,,,,,,,,,,,,,,,,,,,,,,,,,,,,,,,,,,,,,,,,,,,,,,
991761,001,2022-11-21_24h55.43.521,Info_measure_main_exp,2022.2.2,Win32,60.41200991,,,,,,,,,,,,,,,,,,masks/mask_003.jpg,,,,,,,,,,,,,,,,,,,,,,,,,,,,,,,,,,,,,,,,,,,0,1,1,2,1,,,,,,,,,,,,,,,,,,,,,,,,,,,,,,,,,,,,,,,,,,,,,,
991761,001,2022-11-21_24h55.43.521,Info_measure_main_exp,2022.2.2,Win32,60.41200991,,,,,,,,,,,,,,,,,,masks/mask_004.jpg,,,,,,,,,,,,,,,,,,,,,,,,,,,,,,,,,,,,,,,,,,,0,2,2,3,1,,,,,,,,,,,,,,,,,,,,,,,,,,,,,,,,,,,,,,,,,,,,,,
991761,001,2022-11-21_24h55.43.521,Info_measure_main_exp,2022.2.2,Win32,60.41200991,,,,,,,,,,,,,,,,,,masks/mask_001.jpg,,,,,,,,,,,,,,,,,,,,,,,,,,,,,,,,,,,,,,,,,,,0,3,3,0,1,,,,,,,,,,,,,,,,,,,,,,,,,,,,,,,,,,,,,,,,,,,,,,
991761,001,2022-11-21_24h55.43.521,Info_measure_main_exp,2022.2.2,Win32,60.41200991,,,,,,,,,,,,,,,,,,masks/mask_005.jpg,,,,,,,,,,,,,,,,,,,,,,,,,,,,,,,,,,,,,,,,,,,0,4,4,4,1,,,,,,,,,,,,,,,,,,,,,,,,,,,,,,,,,,,,,,,,,,,,,,
991761,001,2022-11-21_24h55.43.521,Info_measure_main_exp,2022.2.2,Win32,60.41200991,,,,,,,,,,,,,,,,,,masks/mask_002.jpg,,,,,,,,,,,,,,,,,,,,,,,,,,,,,,,,,,,,,,,,,,,,,,,,0,0,0,1,1,,,,,,,,,,,,,,,,,,,,,,,,,,,,,,,,,,,,,,,,,
991761,001,2022-11-21_24h55.43.521,Info_measure_main_exp,2022.2.2,Win32,60.41200991,,,,,,,,,,,,,,,,,,masks/mask_004.jpg,,,,,,,,,,,,,,,,,,,,,,,,,,,,,,,,,,,,,,,,,,,,,,,,0,1,1,3,1,,,,,,,,,,,,,,,,,,,,,,,,,,,,,,,,,,,,,,,,,
991761,001,2022-11-21_24h55.43.521,Info_measure_main_exp,2022.2.2,Win32,60.41200991,,,,,,,,,,,,,,,,,,masks/mask_001.jpg,,,,,,,,,,,,,,,,,,,,,,,,,,,,,,,,,,,,,,,,,,,,,,,,0,2,2,0,1,,,,,,,,,,,,,,,,,,,,,,,,,,,,,,,,,,,,,,,,,
991761,001,2022-11-21_24h55.43.521,Info_measure_main_exp,2022.2.2,Win32,60.41200991,,,,,,,,,,,,,,,,,,masks/mask_005.jpg,,,,,,,,,,,,,,,,,,,,,,,,,,,,,,,,,,,,,,,,,,,,,,,,0,3,3,4,1,,,,,,,,,,,,,,,,,,,,,,,,,,,,,,,,,,,,,,,,,
991761,001,2022-11-21_24h55.43.521,Info_measure_main_exp,2022.2.2,Win32,60.41200991,,,,,,,,,,,,,,,,,,masks/mask_003.jpg,,,,,,,,,,,,,,,,,,,,,,,,,,,,,,,,,,,,,,,,,,,,,,,,0,4,4,2,1,,,,,,,,,,,,,,,,,,,,,,,,,,,,,,,,,,,,,,,,,
991761,001,2022-11-21_24h55.43.521,Info_measure_main_exp,2022.2.2,Win32,60.41200991,,,,,,,,,,,,,,,,,,,,,,,,,,,,,,7,0.4169,1,,,,,,,,,,,,0,131,5,5,2154,1950,absent_patch/patch0002154.jpg,absent_patch/patch0001950.jpg,,,,,,,,,,,,,,,,,,,,0.020370413,0.055555556,1,0,0,response1disk,28,0.000925912,0.009259259,1,0,0,center_square,0,27,27,96,1,,,,,,,,,,,,,,,,,,,,,,,
991761,001,2022-11-21_24h55.43.521,Info_measure_main_exp,2022.2.2,Win32,60.41200991,,,,,,,,,,,,,,,,,,masks/mask_001.jpg,,,,,,,,,,,,,,,,,,,,,,,,,,,,,,,,,,,,,,,,,,,0,0,0,0,1,,,,,,,,,,,,,,,,,,,,,,,,,,,,,,,,,,,,,,,,,,,,,,
991761,001,2022-11-21_24h55.43.521,Info_measure_main_exp,2022.2.2,Win32,60.41200991,,,,,,,,,,,,,,,,,,masks/mask_005.jpg,,,,,,,,,,,,,,,,,,,,,,,,,,,,,,,,,,,,,,,,,,,0,1,1,4,1,,,,,,,,,,,,,,,,,,,,,,,,,,,,,,,,,,,,,,,,,,,,,,
991761,001,2022-11-21_24h55.43.521,Info_measure_main_exp,2022.2.2,Win32,60.41200991,,,,,,,,,,,,,,,,,,masks/mask_004.jpg,,,,,,,,,,,,,,,,,,,,,,,,,,,,,,,,,,,,,,,,,,,0,2,2,3,1,,,,,,,,,,,,,,,,,,,,,,,,,,,,,,,,,,,,,,,,,,,,,,
991761,001,2022-11-21_24h55.43.521,Info_measure_main_exp,2022.2.2,Win32,60.41200991,,,,,,,,,,,,,,,,,,masks/mask_003.jpg,,,,,,,,,,,,,,,,,,,,,,,,,,,,,,,,,,,,,,,,,,,0,3,3,2,1,,,,,,,,,,,,,,,,,,,,,,,,,,,,,,,,,,,,,,,,,,,,,,
991761,001,2022-11-21_24h55.43.521,Info_measure_main_exp,2022.2.2,Win32,60.41200991,,,,,,,,,,,,,,,,,,masks/mask_002.jpg,,,,,,,,,,,,,,,,,,,,,,,,,,,,,,,,,,,,,,,,,,,0,4,4,1,1,,,,,,,,,,,,,,,,,,,,,,,,,,,,,,,,,,,,,,,,,,,,,,
991761,001,2022-11-21_24h55.43.521,Info_measure_main_exp,2022.2.2,Win32,60.41200991,,,,,,,,,,,,,,,,,,masks/mask_004.jpg,,,,,,,,,,,,,,,,,,,,,,,,,,,,,,,,,,,,,,,,,,,,,,,,0,0,0,3,1,,,,,,,,,,,,,,,,,,,,,,,,,,,,,,,,,,,,,,,,,
991761,001,2022-11-21_24h55.43.521,Info_measure_main_exp,2022.2.2,Win32,60.41200991,,,,,,,,,,,,,,,,,,masks/mask_001.jpg,,,,,,,,,,,,,,,,,,,,,,,,,,,,,,,,,,,,,,,,,,,,,,,,0,1,1,0,1,,,,,,,,,,,,,,,,,,,,,,,,,,,,,,,,,,,,,,,,,
991761,001,2022-11-21_24h55.43.521,Info_measure_main_exp,2022.2.2,Win32,60.41200991,,,,,,,,,,,,,,,,,,masks/mask_002.jpg,,,,,,,,,,,,,,,,,,,,,,,,,,,,,,,,,,,,,,,,,,,,,,,,0,2,2,1,1,,,,,,,,,,,,,,,,,,,,,,,,,,,,,,,,,,,,,,,,,
991761,001,2022-11-21_24h55.43.521,Info_measure_main_exp,2022.2.2,Win32,60.41200991,,,,,,,,,,,,,,,,,,masks/mask_003.jpg,,,,,,,,,,,,,,,,,,,,,,,,,,,,,,,,,,,,,,,,,,,,,,,,0,3,3,2,1,,,,,,,,,,,,,,,,,,,,,,,,,,,,,,,,,,,,,,,,,
991761,001,2022-11-21_24h55.43.521,Info_measure_main_exp,2022.2.2,Win32,60.41200991,,,,,,,,,,,,,,,,,,masks/mask_005.jpg,,,,,,,,,,,,,,,,,,,,,,,,,,,,,,,,,,,,,,,,,,,,,,,,0,4,4,4,1,,,,,,,,,,,,,,,,,,,,,,,,,,,,,,,,,,,,,,,,,
991761,001,2022-11-21_24h55.43.521,Info_measure_main_exp,2022.2.2,Win32,60.41200991,,,,,,,,,,,,,,,,,,,,,,,,,,,,,,7,0.5067,1,,,,,,,,,,,,0,131,5,5,2190,2214,absent_patch/patch0002190.jpg,absent_patch/patch0002214.jpg,,,,,,,,,,,,,,,,,,,,0.037962949,0.063888868,1,0,0,response1disk,29,0.003703718,0.00462963,1,0,0,center_square,0,28,28,35,1,,,,,,,,,,,,,,,,,,,,,,,
991761,001,2022-11-21_24h55.43.521,Info_measure_main_exp,2022.2.2,Win32,60.41200991,,,,,,,,,,,,,,,,,,masks/mask_005.jpg,,,,,,,,,,,,,,,,,,,,,,,,,,,,,,,,,,,,,,,,,,,0,0,0,4,1,,,,,,,,,,,,,,,,,,,,,,,,,,,,,,,,,,,,,,,,,,,,,,
991761,001,2022-11-21_24h55.43.521,Info_measure_main_exp,2022.2.2,Win32,60.41200991,,,,,,,,,,,,,,,,,,masks/mask_002.jpg,,,,,,,,,,,,,,,,,,,,,,,,,,,,,,,,,,,,,,,,,,,0,1,1,1,1,,,,,,,,,,,,,,,,,,,,,,,,,,,,,,,,,,,,,,,,,,,,,,
991761,001,2022-11-21_24h55.43.521,Info_measure_main_exp,2022.2.2,Win32,60.41200991,,,,,,,,,,,,,,,,,,masks/mask_001.jpg,,,,,,,,,,,,,,,,,,,,,,,,,,,,,,,,,,,,,,,,,,,0,2,2,0,1,,,,,,,,,,,,,,,,,,,,,,,,,,,,,,,,,,,,,,,,,,,,,,
991761,001,2022-11-21_24h55.43.521,Info_measure_main_exp,2022.2.2,Win32,60.41200991,,,,,,,,,,,,,,,,,,masks/mask_004.jpg,,,,,,,,,,,,,,,,,,,,,,,,,,,,,,,,,,,,,,,,,,,0,3,3,3,1,,,,,,,,,,,,,,,,,,,,,,,,,,,,,,,,,,,,,,,,,,,,,,
991761,001,2022-11-21_24h55.43.521,Info_measure_main_exp,2022.2.2,Win32,60.41200991,,,,,,,,,,,,,,,,,,masks/mask_003.jpg,,,,,,,,,,,,,,,,,,,,,,,,,,,,,,,,,,,,,,,,,,,0,4,4,2,1,,,,,,,,,,,,,,,,,,,,,,,,,,,,,,,,,,,,,,,,,,,,,,
991761,001,2022-11-21_24h55.43.521,Info_measure_main_exp,2022.2.2,Win32,60.41200991,,,,,,,,,,,,,,,,,,masks/mask_001.jpg,,,,,,,,,,,,,,,,,,,,,,,,,,,,,,,,,,,,,,,,,,,,,,,,0,0,0,0,1,,,,,,,,,,,,,,,,,,,,,,,,,,,,,,,,,,,,,,,,,
991761,001,2022-11-21_24h55.43.521,Info_measure_main_exp,2022.2.2,Win32,60.41200991,,,,,,,,,,,,,,,,,,masks/mask_002.jpg,,,,,,,,,,,,,,,,,,,,,,,,,,,,,,,,,,,,,,,,,,,,,,,,0,1,1,1,1,,,,,,,,,,,,,,,,,,,,,,,,,,,,,,,,,,,,,,,,,
991761,001,2022-11-21_24h55.43.521,Info_measure_main_exp,2022.2.2,Win32,60.41200991,,,,,,,,,,,,,,,,,,masks/mask_004.jpg,,,,,,,,,,,,,,,,,,,,,,,,,,,,,,,,,,,,,,,,,,,,,,,,0,2,2,3,1,,,,,,,,,,,,,,,,,,,,,,,,,,,,,,,,,,,,,,,,,
991761,001,2022-11-21_24h55.43.521,Info_measure_main_exp,2022.2.2,Win32,60.41200991,,,,,,,,,,,,,,,,,,masks/mask_003.jpg,,,,,,,,,,,,,,,,,,,,,,,,,,,,,,,,,,,,,,,,,,,,,,,,0,3,3,2,1,,,,,,,,,,,,,,,,,,,,,,,,,,,,,,,,,,,,,,,,,
991761,001,2022-11-21_24h55.43.521,Info_measure_main_exp,2022.2.2,Win32,60.41200991,,,,,,,,,,,,,,,,,,masks/mask_005.jpg,,,,,,,,,,,,,,,,,,,,,,,,,,,,,,,,,,,,,,,,,,,,,,,,0,4,4,4,1,,,,,,,,,,,,,,,,,,,,,,,,,,,,,,,,,,,,,,,,,
991761,001,2022-11-21_24h55.43.521,Info_measure_main_exp,2022.2.2,Win32,60.41200991,,,,,,,,,,,,,,,,,,,,,,,,,,,,,,7,0.6842,1,,,,,,,,,,,,0,131,5,5,1986,2274,absent_patch/patch0001986.jpg,absent_patch/patch0002274.jpg,,,,,,,,,,,,,,,,,,,,0.032407407,0.065740727,1,0,0,response1disk,30,-0.006481453,-0.000925947,1,0,0,center_square,0,29,29,7,1,,,,,,,,,,,,,,,,,,,,,,,
991761,001,2022-11-21_24h55.43.521,Info_measure_main_exp,2022.2.2,Win32,60.41200991,,,,,,,,,,,,,,,,,,masks/mask_003.jpg,,,,,,,,,,,,,,,,,,,,,,,,,,,,,,,,,,,,,,,,,,,0,0,0,2,1,,,,,,,,,,,,,,,,,,,,,,,,,,,,,,,,,,,,,,,,,,,,,,
991761,001,2022-11-21_24h55.43.521,Info_measure_main_exp,2022.2.2,Win32,60.41200991,,,,,,,,,,,,,,,,,,masks/mask_004.jpg,,,,,,,,,,,,,,,,,,,,,,,,,,,,,,,,,,,,,,,,,,,0,1,1,3,1,,,,,,,,,,,,,,,,,,,,,,,,,,,,,,,,,,,,,,,,,,,,,,
991761,001,2022-11-21_24h55.43.521,Info_measure_main_exp,2022.2.2,Win32,60.41200991,,,,,,,,,,,,,,,,,,masks/mask_005.jpg,,,,,,,,,,,,,,,,,,,,,,,,,,,,,,,,,,,,,,,,,,,0,2,2,4,1,,,,,,,,,,,,,,,,,,,,,,,,,,,,,,,,,,,,,,,,,,,,,,
991761,001,2022-11-21_24h55.43.521,Info_measure_main_exp,2022.2.2,Win32,60.41200991,,,,,,,,,,,,,,,,,,masks/mask_002.jpg,,,,,,,,,,,,,,,,,,,,,,,,,,,,,,,,,,,,,,,,,,,0,3,3,1,1,,,,,,,,,,,,,,,,,,,,,,,,,,,,,,,,,,,,,,,,,,,,,,
991761,001,2022-11-21_24h55.43.521,Info_measure_main_exp,2022.2.2,Win32,60.41200991,,,,,,,,,,,,,,,,,,masks/mask_001.jpg,,,,,,,,,,,,,,,,,,,,,,,,,,,,,,,,,,,,,,,,,,,0,4,4,0,1,,,,,,,,,,,,,,,,,,,,,,,,,,,,,,,,,,,,,,,,,,,,,,
991761,001,2022-11-21_24h55.43.521,Info_measure_main_exp,2022.2.2,Win32,60.41200991,,,,,,,,,,,,,,,,,,masks/mask_003.jpg,,,,,,,,,,,,,,,,,,,,,,,,,,,,,,,,,,,,,,,,,,,,,,,,0,0,0,2,1,,,,,,,,,,,,,,,,,,,,,,,,,,,,,,,,,,,,,,,,,
991761,001,2022-11-21_24h55.43.521,Info_measure_main_exp,2022.2.2,Win32,60.41200991,,,,,,,,,,,,,,,,,,masks/mask_004.jpg,,,,,,,,,,,,,,,,,,,,,,,,,,,,,,,,,,,,,,,,,,,,,,,,0,1,1,3,1,,,,,,,,,,,,,,,,,,,,,,,,,,,,,,,,,,,,,,,,,
991761,001,2022-11-21_24h55.43.521,Info_measure_main_exp,2022.2.2,Win32,60.41200991,,,,,,,,,,,,,,,,,,masks/mask_001.jpg,,,,,,,,,,,,,,,,,,,,,,,,,,,,,,,,,,,,,,,,,,,,,,,,0,2,2,0,1,,,,,,,,,,,,,,,,,,,,,,,,,,,,,,,,,,,,,,,,,
991761,001,2022-11-21_24h55.43.521,Info_measure_main_exp,2022.2.2,Win32,60.41200991,,,,,,,,,,,,,,,,,,masks/mask_002.jpg,,,,,,,,,,,,,,,,,,,,,,,,,,,,,,,,,,,,,,,,,,,,,,,,0,3,3,1,1,,,,,,,,,,,,,,,,,,,,,,,,,,,,,,,,,,,,,,,,,
991761,001,2022-11-21_24h55.43.521,Info_measure_main_exp,2022.2.2,Win32,60.41200991,,,,,,,,,,,,,,,,,,masks/mask_005.jpg,,,,,,,,,,,,,,,,,,,,,,,,,,,,,,,,,,,,,,,,,,,,,,,,0,4,4,4,1,,,,,,,,,,,,,,,,,,,,,,,,,,,,,,,,,,,,,,,,,
991761,001,2022-11-21_24h55.43.521,Info_measure_main_exp,2022.2.2,Win32,60.41200991,,,,,,,,,,,,,,,,,,,,,,,,,,,,,,7,0.6099,1,,,,,,,,,,,,0,131,5,5,2214,2178,absent_patch/patch0002214.jpg,absent_patch/patch0002178.jpg,,,,,,,,,,,,,,,,,,,,0.031481496,0.065740727,1,0,0,response1disk,31,0.000925912,0.006481489,1,0,0,center_square,0,30,30,62,1,,,,,,,,,,,,,,,,,,,,,,,
991761,001,2022-11-21_24h55.43.521,Info_measure_main_exp,2022.2.2,Win32,60.41200991,,,,,,,,,,,,,,,,,,masks/mask_001.jpg,,,,,,,,,,,,,,,,,,,,,,,,,,,,,,,,,,,,,,,,,,,0,0,0,0,1,,,,,,,,,,,,,,,,,,,,,,,,,,,,,,,,,,,,,,,,,,,,,,
991761,001,2022-11-21_24h55.43.521,Info_measure_main_exp,2022.2.2,Win32,60.41200991,,,,,,,,,,,,,,,,,,masks/mask_003.jpg,,,,,,,,,,,,,,,,,,,,,,,,,,,,,,,,,,,,,,,,,,,0,1,1,2,1,,,,,,,,,,,,,,,,,,,,,,,,,,,,,,,,,,,,,,,,,,,,,,
991761,001,2022-11-21_24h55.43.521,Info_measure_main_exp,2022.2.2,Win32,60.41200991,,,,,,,,,,,,,,,,,,masks/mask_005.jpg,,,,,,,,,,,,,,,,,,,,,,,,,,,,,,,,,,,,,,,,,,,0,2,2,4,1,,,,,,,,,,,,,,,,,,,,,,,,,,,,,,,,,,,,,,,,,,,,,,
991761,001,2022-11-21_24h55.43.521,Info_measure_main_exp,2022.2.2,Win32,60.41200991,,,,,,,,,,,,,,,,,,masks/mask_004.jpg,,,,,,,,,,,,,,,,,,,,,,,,,,,,,,,,,,,,,,,,,,,0,3,3,3,1,,,,,,,,,,,,,,,,,,,,,,,,,,,,,,,,,,,,,,,,,,,,,,
991761,001,2022-11-21_24h55.43.521,Info_measure_main_exp,2022.2.2,Win32,60.41200991,,,,,,,,,,,,,,,,,,masks/mask_002.jpg,,,,,,,,,,,,,,,,,,,,,,,,,,,,,,,,,,,,,,,,,,,0,4,4,1,1,,,,,,,,,,,,,,,,,,,,,,,,,,,,,,,,,,,,,,,,,,,,,,
991761,001,2022-11-21_24h55.43.521,Info_measure_main_exp,2022.2.2,Win32,60.41200991,,,,,,,,,,,,,,,,,,masks/mask_003.jpg,,,,,,,,,,,,,,,,,,,,,,,,,,,,,,,,,,,,,,,,,,,,,,,,0,0,0,2,1,,,,,,,,,,,,,,,,,,,,,,,,,,,,,,,,,,,,,,,,,
991761,001,2022-11-21_24h55.43.521,Info_measure_main_exp,2022.2.2,Win32,60.41200991,,,,,,,,,,,,,,,,,,masks/mask_001.jpg,,,,,,,,,,,,,,,,,,,,,,,,,,,,,,,,,,,,,,,,,,,,,,,,0,1,1,0,1,,,,,,,,,,,,,,,,,,,,,,,,,,,,,,,,,,,,,,,,,
991761,001,2022-11-21_24h55.43.521,Info_measure_main_exp,2022.2.2,Win32,60.41200991,,,,,,,,,,,,,,,,,,masks/mask_005.jpg,,,,,,,,,,,,,,,,,,,,,,,,,,,,,,,,,,,,,,,,,,,,,,,,0,2,2,4,1,,,,,,,,,,,,,,,,,,,,,,,,,,,,,,,,,,,,,,,,,
991761,001,2022-11-21_24h55.43.521,Info_measure_main_exp,2022.2.2,Win32,60.41200991,,,,,,,,,,,,,,,,,,masks/mask_004.jpg,,,,,,,,,,,,,,,,,,,,,,,,,,,,,,,,,,,,,,,,,,,,,,,,0,3,3,3,1,,,,,,,,,,,,,,,,,,,,,,,,,,,,,,,,,,,,,,,,,
991761,001,2022-11-21_24h55.43.521,Info_measure_main_exp,2022.2.2,Win32,60.41200991,,,,,,,,,,,,,,,,,,masks/mask_002.jpg,,,,,,,,,,,,,,,,,,,,,,,,,,,,,,,,,,,,,,,,,,,,,,,,0,4,4,1,1,,,,,,,,,,,,,,,,,,,,,,,,,,,,,,,,,,,,,,,,,
991761,001,2022-11-21_24h55.43.521,Info_measure_main_exp,2022.2.2,Win32,60.41200991,,,,,,,,,,,,,,,,,,,,,,,,,,,,,,5,0.7504,1,,,,,,,,,,,,0,131,5,5,2142,2154,absent_patch/patch0002142.jpg,absent_patch/patch0002154.jpg,,,,,,,,,,,,,,,,,,,,0.079629616,-0.066666674,1,0,0,response3disk,32,0.002777806,0.006481489,1,0,0,center_square,0,31,31,9,1,,,,,,,,,,,,,,,,,,,,,,,
991761,001,2022-11-21_24h55.43.521,Info_measure_main_exp,2022.2.2,Win32,60.41200991,,,,,,,,,,,,,,,,,,masks/mask_001.jpg,,,,,,,,,,,,,,,,,,,,,,,,,,,,,,,,,,,,,,,,,,,0,0,0,0,1,,,,,,,,,,,,,,,,,,,,,,,,,,,,,,,,,,,,,,,,,,,,,,
991761,001,2022-11-21_24h55.43.521,Info_measure_main_exp,2022.2.2,Win32,60.41200991,,,,,,,,,,,,,,,,,,masks/mask_003.jpg,,,,,,,,,,,,,,,,,,,,,,,,,,,,,,,,,,,,,,,,,,,0,1,1,2,1,,,,,,,,,,,,,,,,,,,,,,,,,,,,,,,,,,,,,,,,,,,,,,
991761,001,2022-11-21_24h55.43.521,Info_measure_main_exp,2022.2.2,Win32,60.41200991,,,,,,,,,,,,,,,,,,masks/mask_002.jpg,,,,,,,,,,,,,,,,,,,,,,,,,,,,,,,,,,,,,,,,,,,0,2,2,1,1,,,,,,,,,,,,,,,,,,,,,,,,,,,,,,,,,,,,,,,,,,,,,,
991761,001,2022-11-21_24h55.43.521,Info_measure_main_exp,2022.2.2,Win32,60.41200991,,,,,,,,,,,,,,,,,,masks/mask_005.jpg,,,,,,,,,,,,,,,,,,,,,,,,,,,,,,,,,,,,,,,,,,,0,3,3,4,1,,,,,,,,,,,,,,,,,,,,,,,,,,,,,,,,,,,,,,,,,,,,,,
991761,001,2022-11-21_24h55.43.521,Info_measure_main_exp,2022.2.2,Win32,60.41200991,,,,,,,,,,,,,,,,,,masks/mask_004.jpg,,,,,,,,,,,,,,,,,,,,,,,,,,,,,,,,,,,,,,,,,,,0,4,4,3,1,,,,,,,,,,,,,,,,,,,,,,,,,,,,,,,,,,,,,,,,,,,,,,
991761,001,2022-11-21_24h55.43.521,Info_measure_main_exp,2022.2.2,Win32,60.41200991,,,,,,,,,,,,,,,,,,masks/mask_004.jpg,,,,,,,,,,,,,,,,,,,,,,,,,,,,,,,,,,,,,,,,,,,,,,,,0,0,0,3,1,,,,,,,,,,,,,,,,,,,,,,,,,,,,,,,,,,,,,,,,,
991761,001,2022-11-21_24h55.43.521,Info_measure_main_exp,2022.2.2,Win32,60.41200991,,,,,,,,,,,,,,,,,,masks/mask_005.jpg,,,,,,,,,,,,,,,,,,,,,,,,,,,,,,,,,,,,,,,,,,,,,,,,0,1,1,4,1,,,,,,,,,,,,,,,,,,,,,,,,,,,,,,,,,,,,,,,,,
991761,001,2022-11-21_24h55.43.521,Info_measure_main_exp,2022.2.2,Win32,60.41200991,,,,,,,,,,,,,,,,,,masks/mask_001.jpg,,,,,,,,,,,,,,,,,,,,,,,,,,,,,,,,,,,,,,,,,,,,,,,,0,2,2,0,1,,,,,,,,,,,,,,,,,,,,,,,,,,,,,,,,,,,,,,,,,
991761,001,2022-11-21_24h55.43.521,Info_measure_main_exp,2022.2.2,Win32,60.41200991,,,,,,,,,,,,,,,,,,masks/mask_003.jpg,,,,,,,,,,,,,,,,,,,,,,,,,,,,,,,,,,,,,,,,,,,,,,,,0,3,3,2,1,,,,,,,,,,,,,,,,,,,,,,,,,,,,,,,,,,,,,,,,,
991761,001,2022-11-21_24h55.43.521,Info_measure_main_exp,2022.2.2,Win32,60.41200991,,,,,,,,,,,,,,,,,,masks/mask_002.jpg,,,,,,,,,,,,,,,,,,,,,,,,,,,,,,,,,,,,,,,,,,,,,,,,0,4,4,1,1,,,,,,,,,,,,,,,,,,,,,,,,,,,,,,,,,,,,,,,,,
991761,001,2022-11-21_24h55.43.521,Info_measure_main_exp,2022.2.2,Win32,60.41200991,,,,,,,,,,,,,,,,,,,,,,,,,,,,,,4,1.4747,1,,,,,,,,,,,,0,131,5,5,2190,1974,absent_patch/patch0002190.jpg,absent_patch/patch0001974.jpg,,,,,,,,,,,,,,,,,,,,0.025000042,-0.052777785,1,0,0,response3disk,33,0.003703718,0.001851859,1,0,0,center_square,0,32,32,119,1,,,,,,,,,,,,,,,,,,,,,,,
991761,001,2022-11-21_24h55.43.521,Info_measure_main_exp,2022.2.2,Win32,60.41200991,,,,,,,,,,,,,,,,,,masks/mask_005.jpg,,,,,,,,,,,,,,,,,,,,,,,,,,,,,,,,,,,,,,,,,,,0,0,0,4,1,,,,,,,,,,,,,,,,,,,,,,,,,,,,,,,,,,,,,,,,,,,,,,
991761,001,2022-11-21_24h55.43.521,Info_measure_main_exp,2022.2.2,Win32,60.41200991,,,,,,,,,,,,,,,,,,masks/mask_002.jpg,,,,,,,,,,,,,,,,,,,,,,,,,,,,,,,,,,,,,,,,,,,0,1,1,1,1,,,,,,,,,,,,,,,,,,,,,,,,,,,,,,,,,,,,,,,,,,,,,,
991761,001,2022-11-21_24h55.43.521,Info_measure_main_exp,2022.2.2,Win32,60.41200991,,,,,,,,,,,,,,,,,,masks/mask_001.jpg,,,,,,,,,,,,,,,,,,,,,,,,,,,,,,,,,,,,,,,,,,,0,2,2,0,1,,,,,,,,,,,,,,,,,,,,,,,,,,,,,,,,,,,,,,,,,,,,,,
991761,001,2022-11-21_24h55.43.521,Info_measure_main_exp,2022.2.2,Win32,60.41200991,,,,,,,,,,,,,,,,,,masks/mask_004.jpg,,,,,,,,,,,,,,,,,,,,,,,,,,,,,,,,,,,,,,,,,,,0,3,3,3,1,,,,,,,,,,,,,,,,,,,,,,,,,,,,,,,,,,,,,,,,,,,,,,
991761,001,2022-11-21_24h55.43.521,Info_measure_main_exp,2022.2.2,Win32,60.41200991,,,,,,,,,,,,,,,,,,masks/mask_003.jpg,,,,,,,,,,,,,,,,,,,,,,,,,,,,,,,,,,,,,,,,,,,0,4,4,2,1,,,,,,,,,,,,,,,,,,,,,,,,,,,,,,,,,,,,,,,,,,,,,,
991761,001,2022-11-21_24h55.43.521,Info_measure_main_exp,2022.2.2,Win32,60.41200991,,,,,,,,,,,,,,,,,,masks/mask_002.jpg,,,,,,,,,,,,,,,,,,,,,,,,,,,,,,,,,,,,,,,,,,,,,,,,0,0,0,1,1,,,,,,,,,,,,,,,,,,,,,,,,,,,,,,,,,,,,,,,,,
991761,001,2022-11-21_24h55.43.521,Info_measure_main_exp,2022.2.2,Win32,60.41200991,,,,,,,,,,,,,,,,,,masks/mask_001.jpg,,,,,,,,,,,,,,,,,,,,,,,,,,,,,,,,,,,,,,,,,,,,,,,,0,1,1,0,1,,,,,,,,,,,,,,,,,,,,,,,,,,,,,,,,,,,,,,,,,
991761,001,2022-11-21_24h55.43.521,Info_measure_main_exp,2022.2.2,Win32,60.41200991,,,,,,,,,,,,,,,,,,masks/mask_005.jpg,,,,,,,,,,,,,,,,,,,,,,,,,,,,,,,,,,,,,,,,,,,,,,,,0,2,2,4,1,,,,,,,,,,,,,,,,,,,,,,,,,,,,,,,,,,,,,,,,,
991761,001,2022-11-21_24h55.43.521,Info_measure_main_exp,2022.2.2,Win32,60.41200991,,,,,,,,,,,,,,,,,,masks/mask_003.jpg,,,,,,,,,,,,,,,,,,,,,,,,,,,,,,,,,,,,,,,,,,,,,,,,0,3,3,2,1,,,,,,,,,,,,,,,,,,,,,,,,,,,,,,,,,,,,,,,,,
991761,001,2022-11-21_24h55.43.521,Info_measure_main_exp,2022.2.2,Win32,60.41200991,,,,,,,,,,,,,,,,,,masks/mask_004.jpg,,,,,,,,,,,,,,,,,,,,,,,,,,,,,,,,,,,,,,,,,,,,,,,,0,4,4,3,1,,,,,,,,,,,,,,,,,,,,,,,,,,,,,,,,,,,,,,,,,
991761,001,2022-11-21_24h55.43.521,Info_measure_main_exp,2022.2.2,Win32,60.41200991,,,,,,,,,,,,,,,,,,,,,,,,,,,,,,6,0.4843,1,,,,,,,,,,,,0,131,5,5,2082,2238,absent_patch/patch0002082.jpg,absent_patch/patch0002238.jpg,,,,,,,,,,,,,,,,,,,,0.021296325,0.000925912,1,0,0,response1disk,34,-0.005555541,0.000925912,1,0,0,center_square,0,33,33,22,1,,,,,,,,,,,,,,,,,,,,,,,
991761,001,2022-11-21_24h55.43.521,Info_measure_main_exp,2022.2.2,Win32,60.41200991,,,,,,,,,,,,,,,,,,masks/mask_005.jpg,,,,,,,,,,,,,,,,,,,,,,,,,,,,,,,,,,,,,,,,,,,0,0,0,4,1,,,,,,,,,,,,,,,,,,,,,,,,,,,,,,,,,,,,,,,,,,,,,,
991761,001,2022-11-21_24h55.43.521,Info_measure_main_exp,2022.2.2,Win32,60.41200991,,,,,,,,,,,,,,,,,,masks/mask_002.jpg,,,,,,,,,,,,,,,,,,,,,,,,,,,,,,,,,,,,,,,,,,,0,1,1,1,1,,,,,,,,,,,,,,,,,,,,,,,,,,,,,,,,,,,,,,,,,,,,,,
991761,001,2022-11-21_24h55.43.521,Info_measure_main_exp,2022.2.2,Win32,60.41200991,,,,,,,,,,,,,,,,,,masks/mask_004.jpg,,,,,,,,,,,,,,,,,,,,,,,,,,,,,,,,,,,,,,,,,,,0,2,2,3,1,,,,,,,,,,,,,,,,,,,,,,,,,,,,,,,,,,,,,,,,,,,,,,
991761,001,2022-11-21_24h55.43.521,Info_measure_main_exp,2022.2.2,Win32,60.41200991,,,,,,,,,,,,,,,,,,masks/mask_001.jpg,,,,,,,,,,,,,,,,,,,,,,,,,,,,,,,,,,,,,,,,,,,0,3,3,0,1,,,,,,,,,,,,,,,,,,,,,,,,,,,,,,,,,,,,,,,,,,,,,,
991761,001,2022-11-21_24h55.43.521,Info_measure_main_exp,2022.2.2,Win32,60.41200991,,,,,,,,,,,,,,,,,,masks/mask_003.jpg,,,,,,,,,,,,,,,,,,,,,,,,,,,,,,,,,,,,,,,,,,,0,4,4,2,1,,,,,,,,,,,,,,,,,,,,,,,,,,,,,,,,,,,,,,,,,,,,,,
991761,001,2022-11-21_24h55.43.521,Info_measure_main_exp,2022.2.2,Win32,60.41200991,,,,,,,,,,,,,,,,,,masks/mask_003.jpg,,,,,,,,,,,,,,,,,,,,,,,,,,,,,,,,,,,,,,,,,,,,,,,,0,0,0,2,1,,,,,,,,,,,,,,,,,,,,,,,,,,,,,,,,,,,,,,,,,
991761,001,2022-11-21_24h55.43.521,Info_measure_main_exp,2022.2.2,Win32,60.41200991,,,,,,,,,,,,,,,,,,masks/mask_001.jpg,,,,,,,,,,,,,,,,,,,,,,,,,,,,,,,,,,,,,,,,,,,,,,,,0,1,1,0,1,,,,,,,,,,,,,,,,,,,,,,,,,,,,,,,,,,,,,,,,,
991761,001,2022-11-21_24h55.43.521,Info_measure_main_exp,2022.2.2,Win32,60.41200991,,,,,,,,,,,,,,,,,,masks/mask_005.jpg,,,,,,,,,,,,,,,,,,,,,,,,,,,,,,,,,,,,,,,,,,,,,,,,0,2,2,4,1,,,,,,,,,,,,,,,,,,,,,,,,,,,,,,,,,,,,,,,,,
991761,001,2022-11-21_24h55.43.521,Info_measure_main_exp,2022.2.2,Win32,60.41200991,,,,,,,,,,,,,,,,,,masks/mask_004.jpg,,,,,,,,,,,,,,,,,,,,,,,,,,,,,,,,,,,,,,,,,,,,,,,,0,3,3,3,1,,,,,,,,,,,,,,,,,,,,,,,,,,,,,,,,,,,,,,,,,
