participant,session,date,expName,psychopyVersion,OS,frameRate,space_press_continue.keys,space_press_continue.rt,space_press_continue_2.keys,space_press_continue_2.rt,space_press_continue_3.keys,space_press_continue_3.rt,space_press_continue_4.keys,space_press_continue_4.rt,space_press_continue_5.keys,space_press_continue_5.rt,space_press_continue_6.keys,space_press_continue_6.rt,prac_mask_loop_1.thisRepN,prac_mask_loop_1.thisTrialN,prac_mask_loop_1.thisN,prac_mask_loop_1.thisIndex,prac_mask_loop_1.ran,mask_name,prac_mask_loop_2.thisRepN,prac_mask_loop_2.thisTrialN,prac_mask_loop_2.thisN,prac_mask_loop_2.thisIndex,prac_mask_loop_2.ran,mouse_2.x,mouse_2.y,mouse_2.leftButton,mouse_2.midButton,mouse_2.rightButton,mouse_2.clicked_name,similarity,response_time,Pass,mouse_12.x,mouse_12.y,mouse_12.leftButton,mouse_12.midButton,mouse_12.rightButton,mouse_12.clicked_name,prac_loop.thisRepN,prac_loop.thisTrialN,prac_loop.thisN,prac_loop.thisIndex,prac_loop.ran,Pair_type,Image_num,Patch_1_loc,Patch_2_loc,Patch_1_info,Patch_2_info,Patch_1_name,Patch_2_name,mouse_1.x,mouse_1.y,mouse_1.leftButton,mouse_1.midButton,mouse_1.rightButton,mouse_1.time,mouse_1.clicked_name,space_press_continue_7.keys,space_press_continue_7.rt,mask_loop.thisRepN,mask_loop.thisTrialN,mask_loop.thisN,mask_loop.thisIndex,mask_loop.ran,mask_loop_2.thisRepN,mask_loop_2.thisTrialN,mask_loop_2.thisN,mask_loop_2.thisIndex,mask_loop_2.ran,mouse.x,mouse.y,mouse.leftButton,mouse.midButton,mouse.rightButton,mouse.clicked_name,trialNumber,mouse_11.x,mouse_11.y,mouse_11.leftButton,mouse_11.midButton,mouse_11.rightButton,mouse_11.clicked_name,first_pass_loop.thisRepN,first_pass_loop.thisTrialN,first_pass_loop.thisN,first_pass_loop.thisIndex,first_pass_loop.ran,mask_loop_3.thisRepN,mask_loop_3.thisTrialN,mask_loop_3.thisN,mask_loop_3.thisIndex,mask_loop_3.ran,mask_loop_4.thisRepN,mask_loop_4.thisTrialN,mask_loop_4.thisN,mask_loop_4.thisIndex,mask_loop_4.ran,mouse_3.x,mouse_3.y,mouse_3.leftButton,mouse_3.midButton,mouse_3.rightButton,mouse_3.clicked_name,double_pass_loop.thisRepN,double_pass_loop.thisTrialN,double_pass_loop.thisN,double_pass_loop.thisIndex,double_pass_loop.ran,space_exit.keys,space_exit.rt
995526,001,2022-11-20_18h49.57.938,Info_measure_main_exp,2022.2.2,Win32,60.09976561,,,,,,,,,,,,,,,,,,,,,,,,,,,,,,,,,,,,,,,,,,,,,,,,,,,,,,,,,,,,,,,,,,,,,,,,,,,,,,,,,,,,,,,,,,,,,,,,,,,,,,,,,,,,,,,
995526,001,2022-11-20_18h49.57.938,Info_measure_main_exp,2022.2.2,Win32,60.09976561,,,,,,,,,,,,,,,,,,,,,,,,,,,,,,,,,,,,,,,,,,,,,,,,,,,,,,,,,,,,,,,,,,,,,,,,,,,,,,,,,,,,,,,,,,,,,,,,,,,,,,,,,,,,,,,
995526,001,2022-11-20_18h49.57.938,Info_measure_main_exp,2022.2.2,Win32,60.09976561,space,4.8229,,,,,,,,,,,,,,,,,,,,,,,,,,,,,,,,,,,,,,,,,,,,,,,,,,,,,,,,,,,,,,,,,,,,,,,,,,,,,,,,,,,,,,,,,,,,,,,,,,,,,,,,,,,,,
995526,001,2022-11-20_18h49.57.938,Info_measure_main_exp,2022.2.2,Win32,60.09976561,,,space,11.7669,,,,,,,,,,,,,,,,,,,,,,,,,,,,,,,,,,,,,,,,,,,,,,,,,,,,,,,,,,,,,,,,,,,,,,,,,,,,,,,,,,,,,,,,,,,,,,,,,,,,,,,,,,,
995526,001,2022-11-20_18h49.57.938,Info_measure_main_exp,2022.2.2,Win32,60.09976561,,,,,space,5.7319,,,,,,,,,,,,,,,,,,,,,,,,,,,,,,,,,,,,,,,,,,,,,,,,,,,,,,,,,,,,,,,,,,,,,,,,,,,,,,,,,,,,,,,,,,,,,,,,,,,,,,,,,
995526,001,2022-11-20_18h49.57.938,Info_measure_main_exp,2022.2.2,Win32,60.09976561,,,,,,,space,21.7732,,,,,,,,,,,,,,,,,,,,,,,,,,,,,,,,,,,,,,,,,,,,,,,,,,,,,,,,,,,,,,,,,,,,,,,,,,,,,,,,,,,,,,,,,,,,,,,,,,,,,,,
995526,001,2022-11-20_18h49.57.938,Info_measure_main_exp,2022.2.2,Win32,60.09976561,,,,,,,,,space,14.0859,,,,,,,,,,,,,,,,,,,,,,,,,,,,,,,,,,,,,,,,,,,,,,,,,,,,,,,,,,,,,,,,,,,,,,,,,,,,,,,,,,,,,,,,,,,,,,,,,,,,,
995526,001,2022-11-20_18h49.57.938,Info_measure_main_exp,2022.2.2,Win32,60.09976561,,,,,,,,,,,space,2.7227,,,,,,,,,,,,,,,,,,,,,,,,,,,,,,,,,,,,,,,,,,,,,,,,,,,,,,,,,,,,,,,,,,,,,,,,,,,,,,,,,,,,,,,,,,,,,,,,,,,
995526,001,2022-11-20_18h49.57.938,Info_measure_main_exp,2022.2.2,Win32,60.09976561,,,,,,,,,,,,,0,0,0,0,1,masks/mask_001.jpg,,,,,,,,,,,,,,,,,,,,,,,,,,,,,,,,,,,,,,,,,,,,,,,,,,,,,,,,,,,,,,,,,,,,,,,,,,,,,,,,,,,,,,,,,,,,,
995526,001,2022-11-20_18h49.57.938,Info_measure_main_exp,2022.2.2,Win32,60.09976561,,,,,,,,,,,,,0,1,1,2,1,masks/mask_003.jpg,,,,,,,,,,,,,,,,,,,,,,,,,,,,,,,,,,,,,,,,,,,,,,,,,,,,,,,,,,,,,,,,,,,,,,,,,,,,,,,,,,,,,,,,,,,,,
995526,001,2022-11-20_18h49.57.938,Info_measure_main_exp,2022.2.2,Win32,60.09976561,,,,,,,,,,,,,0,2,2,1,1,masks/mask_002.jpg,,,,,,,,,,,,,,,,,,,,,,,,,,,,,,,,,,,,,,,,,,,,,,,,,,,,,,,,,,,,,,,,,,,,,,,,,,,,,,,,,,,,,,,,,,,,,
995526,001,2022-11-20_18h49.57.938,Info_measure_main_exp,2022.2.2,Win32,60.09976561,,,,,,,,,,,,,0,3,3,3,1,masks/mask_004.jpg,,,,,,,,,,,,,,,,,,,,,,,,,,,,,,,,,,,,,,,,,,,,,,,,,,,,,,,,,,,,,,,,,,,,,,,,,,,,,,,,,,,,,,,,,,,,,
995526,001,2022-11-20_18h49.57.938,Info_measure_main_exp,2022.2.2,Win32,60.09976561,,,,,,,,,,,,,0,4,4,4,1,masks/mask_005.jpg,,,,,,,,,,,,,,,,,,,,,,,,,,,,,,,,,,,,,,,,,,,,,,,,,,,,,,,,,,,,,,,,,,,,,,,,,,,,,,,,,,,,,,,,,,,,,
995526,001,2022-11-20_18h49.57.938,Info_measure_main_exp,2022.2.2,Win32,60.09976561,,,,,,,,,,,,,,,,,,masks/mask_002.jpg,0,0,0,1,1,,,,,,,,,,,,,,,,,,,,,,,,,,,,,,,,,,,,,,,,,,,,,,,,,,,,,,,,,,,,,,,,,,,,,,,,,,,,,,,,,,,,,,,,
995526,001,2022-11-20_18h49.57.938,Info_measure_main_exp,2022.2.2,Win32,60.09976561,,,,,,,,,,,,,,,,,,masks/mask_003.jpg,0,1,1,2,1,,,,,,,,,,,,,,,,,,,,,,,,,,,,,,,,,,,,,,,,,,,,,,,,,,,,,,,,,,,,,,,,,,,,,,,,,,,,,,,,,,,,,,,,
995526,001,2022-11-20_18h49.57.938,Info_measure_main_exp,2022.2.2,Win32,60.09976561,,,,,,,,,,,,,,,,,,masks/mask_001.jpg,0,2,2,0,1,,,,,,,,,,,,,,,,,,,,,,,,,,,,,,,,,,,,,,,,,,,,,,,,,,,,,,,,,,,,,,,,,,,,,,,,,,,,,,,,,,,,,,,,
995526,001,2022-11-20_18h49.57.938,Info_measure_main_exp,2022.2.2,Win32,60.09976561,,,,,,,,,,,,,,,,,,masks/mask_004.jpg,0,3,3,3,1,,,,,,,,,,,,,,,,,,,,,,,,,,,,,,,,,,,,,,,,,,,,,,,,,,,,,,,,,,,,,,,,,,,,,,,,,,,,,,,,,,,,,,,,
995526,001,2022-11-20_18h49.57.938,Info_measure_main_exp,2022.2.2,Win32,60.09976561,,,,,,,,,,,,,,,,,,masks/mask_005.jpg,0,4,4,4,1,,,,,,,,,,,,,,,,,,,,,,,,,,,,,,,,,,,,,,,,,,,,,,,,,,,,,,,,,,,,,,,,,,,,,,,,,,,,,,,,,,,,,,,,
995526,001,2022-11-20_18h49.57.938,Info_measure_main_exp,2022.2.2,Win32,60.09976561,,,,,,,,,,,,,,,,,,,,,,,,-0.071931518,0.163733223,1,0,0,response7disk,0,64.9266,1,0.010514099,0.010884683,1,0,0,center_square,0,0,0,2,1,0,131,5,5,2526,2526,prac_patch/patch0002526.jpg,prac_patch/patch0002526.jpg,,,,,,,,,,,,,,,,,,,,,,,,,,,,,,,,,,,,,,,,,,,,,,,,,,,,,,,,,,,,
995526,001,2022-11-20_18h49.57.938,Info_measure_main_exp,2022.2.2,Win32,60.09976561,,,,,,,,,,,,,0,0,0,2,1,masks/mask_003.jpg,,,,,,,,,,,,,,,,,,,,,,,,,,,,,,,,,,,,,,,,,,,,,,,,,,,,,,,,,,,,,,,,,,,,,,,,,,,,,,,,,,,,,,,,,,,,,
995526,001,2022-11-20_18h49.57.938,Info_measure_main_exp,2022.2.2,Win32,60.09976561,,,,,,,,,,,,,0,1,1,4,1,masks/mask_005.jpg,,,,,,,,,,,,,,,,,,,,,,,,,,,,,,,,,,,,,,,,,,,,,,,,,,,,,,,,,,,,,,,,,,,,,,,,,,,,,,,,,,,,,,,,,,,,,
995526,001,2022-11-20_18h49.57.938,Info_measure_main_exp,2022.2.2,Win32,60.09976561,,,,,,,,,,,,,0,2,2,3,1,masks/mask_004.jpg,,,,,,,,,,,,,,,,,,,,,,,,,,,,,,,,,,,,,,,,,,,,,,,,,,,,,,,,,,,,,,,,,,,,,,,,,,,,,,,,,,,,,,,,,,,,,
995526,001,2022-11-20_18h49.57.938,Info_measure_main_exp,2022.2.2,Win32,60.09976561,,,,,,,,,,,,,0,3,3,0,1,masks/mask_001.jpg,,,,,,,,,,,,,,,,,,,,,,,,,,,,,,,,,,,,,,,,,,,,,,,,,,,,,,,,,,,,,,,,,,,,,,,,,,,,,,,,,,,,,,,,,,,,,
995526,001,2022-11-20_18h49.57.938,Info_measure_main_exp,2022.2.2,Win32,60.09976561,,,,,,,,,,,,,0,4,4,1,1,masks/mask_002.jpg,,,,,,,,,,,,,,,,,,,,,,,,,,,,,,,,,,,,,,,,,,,,,,,,,,,,,,,,,,,,,,,,,,,,,,,,,,,,,,,,,,,,,,,,,,,,,
995526,001,2022-11-20_18h49.57.938,Info_measure_main_exp,2022.2.2,Win32,60.09976561,,,,,,,,,,,,,,,,,,masks/mask_002.jpg,0,0,0,1,1,,,,,,,,,,,,,,,,,,,,,,,,,,,,,,,,,,,,,,,,,,,,,,,,,,,,,,,,,,,,,,,,,,,,,,,,,,,,,,,,,,,,,,,,
995526,001,2022-11-20_18h49.57.938,Info_measure_main_exp,2022.2.2,Win32,60.09976561,,,,,,,,,,,,,,,,,,masks/mask_004.jpg,0,1,1,3,1,,,,,,,,,,,,,,,,,,,,,,,,,,,,,,,,,,,,,,,,,,,,,,,,,,,,,,,,,,,,,,,,,,,,,,,,,,,,,,,,,,,,,,,,
995526,001,2022-11-20_18h49.57.938,Info_measure_main_exp,2022.2.2,Win32,60.09976561,,,,,,,,,,,,,,,,,,masks/mask_005.jpg,0,2,2,4,1,,,,,,,,,,,,,,,,,,,,,,,,,,,,,,,,,,,,,,,,,,,,,,,,,,,,,,,,,,,,,,,,,,,,,,,,,,,,,,,,,,,,,,,,
995526,001,2022-11-20_18h49.57.938,Info_measure_main_exp,2022.2.2,Win32,60.09976561,,,,,,,,,,,,,,,,,,masks/mask_001.jpg,0,3,3,0,1,,,,,,,,,,,,,,,,,,,,,,,,,,,,,,,,,,,,,,,,,,,,,,,,,,,,,,,,,,,,,,,,,,,,,,,,,,,,,,,,,,,,,,,,
995526,001,2022-11-20_18h49.57.938,Info_measure_main_exp,2022.2.2,Win32,60.09976561,,,,,,,,,,,,,,,,,,masks/mask_003.jpg,0,4,4,2,1,,,,,,,,,,,,,,,,,,,,,,,,,,,,,,,,,,,,,,,,,,,,,,,,,,,,,,,,,,,,,,,,,,,,,,,,,,,,,,,,,,,,,,,,
995526,001,2022-11-20_18h49.57.938,Info_measure_main_exp,2022.2.2,Win32,60.09976561,,,,,,,,,,,,,,,,,,,,,,,,0.127234752,-0.069708156,1,0,0,response3disk,5,77.9091,1,0.005882347,-0.008568759,1,0,0,center_square,0,1,1,1,1,0,131,5,5,2514,2490,prac_patch/patch0002514.jpg,prac_patch/patch0002490.jpg,,,,,,,,,,,,,,,,,,,,,,,,,,,,,,,,,,,,,,,,,,,,,,,,,,,,,,,,,,,,
995526,001,2022-11-20_18h49.57.938,Info_measure_main_exp,2022.2.2,Win32,60.09976561,,,,,,,,,,,,,0,0,0,3,1,masks/mask_004.jpg,,,,,,,,,,,,,,,,,,,,,,,,,,,,,,,,,,,,,,,,,,,,,,,,,,,,,,,,,,,,,,,,,,,,,,,,,,,,,,,,,,,,,,,,,,,,,
995526,001,2022-11-20_18h49.57.938,Info_measure_main_exp,2022.2.2,Win32,60.09976561,,,,,,,,,,,,,0,1,1,1,1,masks/mask_002.jpg,,,,,,,,,,,,,,,,,,,,,,,,,,,,,,,,,,,,,,,,,,,,,,,,,,,,,,,,,,,,,,,,,,,,,,,,,,,,,,,,,,,,,,,,,,,,,
995526,001,2022-11-20_18h49.57.938,Info_measure_main_exp,2022.2.2,Win32,60.09976561,,,,,,,,,,,,,0,2,2,2,1,masks/mask_003.jpg,,,,,,,,,,,,,,,,,,,,,,,,,,,,,,,,,,,,,,,,,,,,,,,,,,,,,,,,,,,,,,,,,,,,,,,,,,,,,,,,,,,,,,,,,,,,,
995526,001,2022-11-20_18h49.57.938,Info_measure_main_exp,2022.2.2,Win32,60.09976561,,,,,,,,,,,,,0,3,3,4,1,masks/mask_005.jpg,,,,,,,,,,,,,,,,,,,,,,,,,,,,,,,,,,,,,,,,,,,,,,,,,,,,,,,,,,,,,,,,,,,,,,,,,,,,,,,,,,,,,,,,,,,,,
995526,001,2022-11-20_18h49.57.938,Info_measure_main_exp,2022.2.2,Win32,60.09976561,,,,,,,,,,,,,0,4,4,0,1,masks/mask_001.jpg,,,,,,,,,,,,,,,,,,,,,,,,,,,,,,,,,,,,,,,,,,,,,,,,,,,,,,,,,,,,,,,,,,,,,,,,,,,,,,,,,,,,,,,,,,,,,
995526,001,2022-11-20_18h49.57.938,Info_measure_main_exp,2022.2.2,Win32,60.09976561,,,,,,,,,,,,,,,,,,masks/mask_004.jpg,0,0,0,3,1,,,,,,,,,,,,,,,,,,,,,,,,,,,,,,,,,,,,,,,,,,,,,,,,,,,,,,,,,,,,,,,,,,,,,,,,,,,,,,,,,,,,,,,,
995526,001,2022-11-20_18h49.57.938,Info_measure_main_exp,2022.2.2,Win32,60.09976561,,,,,,,,,,,,,,,,,,masks/mask_005.jpg,0,1,1,4,1,,,,,,,,,,,,,,,,,,,,,,,,,,,,,,,,,,,,,,,,,,,,,,,,,,,,,,,,,,,,,,,,,,,,,,,,,,,,,,,,,,,,,,,,
995526,001,2022-11-20_18h49.57.938,Info_measure_main_exp,2022.2.2,Win32,60.09976561,,,,,,,,,,,,,,,,,,masks/mask_002.jpg,0,2,2,1,1,,,,,,,,,,,,,,,,,,,,,,,,,,,,,,,,,,,,,,,,,,,,,,,,,,,,,,,,,,,,,,,,,,,,,,,,,,,,,,,,,,,,,,,,
995526,001,2022-11-20_18h49.57.938,Info_measure_main_exp,2022.2.2,Win32,60.09976561,,,,,,,,,,,,,,,,,,masks/mask_003.jpg,0,3,3,2,1,,,,,,,,,,,,,,,,,,,,,,,,,,,,,,,,,,,,,,,,,,,,,,,,,,,,,,,,,,,,,,,,,,,,,,,,,,,,,,,,,,,,,,,,
995526,001,2022-11-20_18h49.57.938,Info_measure_main_exp,2022.2.2,Win32,60.09976561,,,,,,,,,,,,,,,,,,masks/mask_001.jpg,0,4,4,0,1,,,,,,,,,,,,,,,,,,,,,,,,,,,,,,,,,,,,,,,,,,,,,,,,,,,,,,,,,,,,,,,,,,,,,,,,,,,,,,,,,,,,,,,,
995526,001,2022-11-20_18h49.57.938,Info_measure_main_exp,2022.2.2,Win32,60.09976561,,,,,,,,,,,,,,,,,,,,,,,,0.080917046,0.106299237,1,0,0,response1disk,7,88.4259,1,-0.00430764,0.006252932,1,0,0,center_square,0,2,2,0,1,0,131,5,5,2370,2406,prac_patch/patch0002370.jpg,prac_patch/patch0002406.jpg,,,,,,,,,,,,,,,,,,,,,,,,,,,,,,,,,,,,,,,,,,,,,,,,,,,,,,,,,,,,
995526,001,2022-11-20_18h49.57.938,Info_measure_main_exp,2022.2.2,Win32,60.09976561,,,,,,,,,,,,,,,,,,,,,,,,,,,,,,,,,,,,,,,,,,,,,,,,,,,,,,,,,,,space,1.6887,,,,,,,,,,,,,,,,,,,,,,,,,,,,,,,,,,,,,,,,,,,,,,,,,,,
995526,001,2022-11-20_18h49.57.938,Info_measure_main_exp,2022.2.2,Win32,60.09976561,,,,,,,,,,,,,,,,,,masks/mask_001.jpg,,,,,,,,,,,,,,,,,,,,,,,,,,,,,,,,,,,,,,,,,,,0,0,0,0,1,,,,,,,,,,,,,,,,,,,,,,,,,,,,,,,,,,,,,,,,,,,,,,
995526,001,2022-11-20_18h49.57.938,Info_measure_main_exp,2022.2.2,Win32,60.09976561,,,,,,,,,,,,,,,,,,masks/mask_002.jpg,,,,,,,,,,,,,,,,,,,,,,,,,,,,,,,,,,,,,,,,,,,0,1,1,1,1,,,,,,,,,,,,,,,,,,,,,,,,,,,,,,,,,,,,,,,,,,,,,,
995526,001,2022-11-20_18h49.57.938,Info_measure_main_exp,2022.2.2,Win32,60.09976561,,,,,,,,,,,,,,,,,,masks/mask_004.jpg,,,,,,,,,,,,,,,,,,,,,,,,,,,,,,,,,,,,,,,,,,,0,2,2,3,1,,,,,,,,,,,,,,,,,,,,,,,,,,,,,,,,,,,,,,,,,,,,,,
995526,001,2022-11-20_18h49.57.938,Info_measure_main_exp,2022.2.2,Win32,60.09976561,,,,,,,,,,,,,,,,,,masks/mask_005.jpg,,,,,,,,,,,,,,,,,,,,,,,,,,,,,,,,,,,,,,,,,,,0,3,3,4,1,,,,,,,,,,,,,,,,,,,,,,,,,,,,,,,,,,,,,,,,,,,,,,
995526,001,2022-11-20_18h49.57.938,Info_measure_main_exp,2022.2.2,Win32,60.09976561,,,,,,,,,,,,,,,,,,masks/mask_003.jpg,,,,,,,,,,,,,,,,,,,,,,,,,,,,,,,,,,,,,,,,,,,0,4,4,2,1,,,,,,,,,,,,,,,,,,,,,,,,,,,,,,,,,,,,,,,,,,,,,,
995526,001,2022-11-20_18h49.57.938,Info_measure_main_exp,2022.2.2,Win32,60.09976561,,,,,,,,,,,,,,,,,,masks/mask_005.jpg,,,,,,,,,,,,,,,,,,,,,,,,,,,,,,,,,,,,,,,,,,,,,,,,0,0,0,4,1,,,,,,,,,,,,,,,,,,,,,,,,,,,,,,,,,,,,,,,,,
995526,001,2022-11-20_18h49.57.938,Info_measure_main_exp,2022.2.2,Win32,60.09976561,,,,,,,,,,,,,,,,,,masks/mask_003.jpg,,,,,,,,,,,,,,,,,,,,,,,,,,,,,,,,,,,,,,,,,,,,,,,,0,1,1,2,1,,,,,,,,,,,,,,,,,,,,,,,,,,,,,,,,,,,,,,,,,
995526,001,2022-11-20_18h49.57.938,Info_measure_main_exp,2022.2.2,Win32,60.09976561,,,,,,,,,,,,,,,,,,masks/mask_002.jpg,,,,,,,,,,,,,,,,,,,,,,,,,,,,,,,,,,,,,,,,,,,,,,,,0,2,2,1,1,,,,,,,,,,,,,,,,,,,,,,,,,,,,,,,,,,,,,,,,,
995526,001,2022-11-20_18h49.57.938,Info_measure_main_exp,2022.2.2,Win32,60.09976561,,,,,,,,,,,,,,,,,,masks/mask_001.jpg,,,,,,,,,,,,,,,,,,,,,,,,,,,,,,,,,,,,,,,,,,,,,,,,0,3,3,0,1,,,,,,,,,,,,,,,,,,,,,,,,,,,,,,,,,,,,,,,,,
995526,001,2022-11-20_18h49.57.938,Info_measure_main_exp,2022.2.2,Win32,60.09976561,,,,,,,,,,,,,,,,,,masks/mask_004.jpg,,,,,,,,,,,,,,,,,,,,,,,,,,,,,,,,,,,,,,,,,,,,,,,,0,4,4,3,1,,,,,,,,,,,,,,,,,,,,,,,,,,,,,,,,,,,,,,,,,
995526,001,2022-11-20_18h49.57.938,Info_measure_main_exp,2022.2.2,Win32,60.09976561,,,,,,,,,,,,,,,,,,,,,,,,,,,,,,0,0.8335,1,,,,,,,,,,,,0,131,5,5,2238,2238,absent_patch/patch0002238.jpg,absent_patch/patch0002238.jpg,,,,,,,,,,,,,,,,,,,,-0.017276602,0.08036129,1,0,0,response7disk,1,0.012366684,0.001621132,1,0,0,center_square,0,0,0,58,1,,,,,,,,,,,,,,,,,,,,,,,
995526,001,2022-11-20_18h49.57.938,Info_measure_main_exp,2022.2.2,Win32,60.09976561,,,,,,,,,,,,,,,,,,masks/mask_005.jpg,,,,,,,,,,,,,,,,,,,,,,,,,,,,,,,,,,,,,,,,,,,0,0,0,4,1,,,,,,,,,,,,,,,,,,,,,,,,,,,,,,,,,,,,,,,,,,,,,,
995526,001,2022-11-20_18h49.57.938,Info_measure_main_exp,2022.2.2,Win32,60.09976561,,,,,,,,,,,,,,,,,,masks/mask_001.jpg,,,,,,,,,,,,,,,,,,,,,,,,,,,,,,,,,,,,,,,,,,,0,1,1,0,1,,,,,,,,,,,,,,,,,,,,,,,,,,,,,,,,,,,,,,,,,,,,,,
995526,001,2022-11-20_18h49.57.938,Info_measure_main_exp,2022.2.2,Win32,60.09976561,,,,,,,,,,,,,,,,,,masks/mask_003.jpg,,,,,,,,,,,,,,,,,,,,,,,,,,,,,,,,,,,,,,,,,,,0,2,2,2,1,,,,,,,,,,,,,,,,,,,,,,,,,,,,,,,,,,,,,,,,,,,,,,
995526,001,2022-11-20_18h49.57.938,Info_measure_main_exp,2022.2.2,Win32,60.09976561,,,,,,,,,,,,,,,,,,masks/mask_002.jpg,,,,,,,,,,,,,,,,,,,,,,,,,,,,,,,,,,,,,,,,,,,0,3,3,1,1,,,,,,,,,,,,,,,,,,,,,,,,,,,,,,,,,,,,,,,,,,,,,,
995526,001,2022-11-20_18h49.57.938,Info_measure_main_exp,2022.2.2,Win32,60.09976561,,,,,,,,,,,,,,,,,,masks/mask_004.jpg,,,,,,,,,,,,,,,,,,,,,,,,,,,,,,,,,,,,,,,,,,,0,4,4,3,1,,,,,,,,,,,,,,,,,,,,,,,,,,,,,,,,,,,,,,,,,,,,,,
995526,001,2022-11-20_18h49.57.938,Info_measure_main_exp,2022.2.2,Win32,60.09976561,,,,,,,,,,,,,,,,,,masks/mask_003.jpg,,,,,,,,,,,,,,,,,,,,,,,,,,,,,,,,,,,,,,,,,,,,,,,,0,0,0,2,1,,,,,,,,,,,,,,,,,,,,,,,,,,,,,,,,,,,,,,,,,
995526,001,2022-11-20_18h49.57.938,Info_measure_main_exp,2022.2.2,Win32,60.09976561,,,,,,,,,,,,,,,,,,masks/mask_005.jpg,,,,,,,,,,,,,,,,,,,,,,,,,,,,,,,,,,,,,,,,,,,,,,,,0,1,1,4,1,,,,,,,,,,,,,,,,,,,,,,,,,,,,,,,,,,,,,,,,,
995526,001,2022-11-20_18h49.57.938,Info_measure_main_exp,2022.2.2,Win32,60.09976561,,,,,,,,,,,,,,,,,,masks/mask_004.jpg,,,,,,,,,,,,,,,,,,,,,,,,,,,,,,,,,,,,,,,,,,,,,,,,0,2,2,3,1,,,,,,,,,,,,,,,,,,,,,,,,,,,,,,,,,,,,,,,,,
995526,001,2022-11-20_18h49.57.938,Info_measure_main_exp,2022.2.2,Win32,60.09976561,,,,,,,,,,,,,,,,,,masks/mask_002.jpg,,,,,,,,,,,,,,,,,,,,,,,,,,,,,,,,,,,,,,,,,,,,,,,,0,3,3,1,1,,,,,,,,,,,,,,,,,,,,,,,,,,,,,,,,,,,,,,,,,
995526,001,2022-11-20_18h49.57.938,Info_measure_main_exp,2022.2.2,Win32,60.09976561,,,,,,,,,,,,,,,,,,masks/mask_001.jpg,,,,,,,,,,,,,,,,,,,,,,,,,,,,,,,,,,,,,,,,,,,,,,,,0,4,4,0,1,,,,,,,,,,,,,,,,,,,,,,,,,,,,,,,,,,,,,,,,,
995526,001,2022-11-20_18h49.57.938,Info_measure_main_exp,2022.2.2,Win32,60.09976561,,,,,,,,,,,,,,,,,,,,,,,,,,,,,,7,1.3998,1,,,,,,,,,,,,0,131,5,5,1974,2250,absent_patch/patch0001974.jpg,absent_patch/patch0002250.jpg,,,,,,,,,,,,,,,,,,,,0.041083677,0.09425664,1,0,0,response1disk,2,0.0012505,-0.000231549,1,0,0,center_square,0,1,1,55,1,,,,,,,,,,,,,,,,,,,,,,,
995526,001,2022-11-20_18h49.57.938,Info_measure_main_exp,2022.2.2,Win32,60.09976561,,,,,,,,,,,,,,,,,,masks/mask_001.jpg,,,,,,,,,,,,,,,,,,,,,,,,,,,,,,,,,,,,,,,,,,,0,0,0,0,1,,,,,,,,,,,,,,,,,,,,,,,,,,,,,,,,,,,,,,,,,,,,,,
995526,001,2022-11-20_18h49.57.938,Info_measure_main_exp,2022.2.2,Win32,60.09976561,,,,,,,,,,,,,,,,,,masks/mask_002.jpg,,,,,,,,,,,,,,,,,,,,,,,,,,,,,,,,,,,,,,,,,,,0,1,1,1,1,,,,,,,,,,,,,,,,,,,,,,,,,,,,,,,,,,,,,,,,,,,,,,
995526,001,2022-11-20_18h49.57.938,Info_measure_main_exp,2022.2.2,Win32,60.09976561,,,,,,,,,,,,,,,,,,masks/mask_005.jpg,,,,,,,,,,,,,,,,,,,,,,,,,,,,,,,,,,,,,,,,,,,0,2,2,4,1,,,,,,,,,,,,,,,,,,,,,,,,,,,,,,,,,,,,,,,,,,,,,,
995526,001,2022-11-20_18h49.57.938,Info_measure_main_exp,2022.2.2,Win32,60.09976561,,,,,,,,,,,,,,,,,,masks/mask_004.jpg,,,,,,,,,,,,,,,,,,,,,,,,,,,,,,,,,,,,,,,,,,,0,3,3,3,1,,,,,,,,,,,,,,,,,,,,,,,,,,,,,,,,,,,,,,,,,,,,,,
995526,001,2022-11-20_18h49.57.938,Info_measure_main_exp,2022.2.2,Win32,60.09976561,,,,,,,,,,,,,,,,,,masks/mask_003.jpg,,,,,,,,,,,,,,,,,,,,,,,,,,,,,,,,,,,,,,,,,,,0,4,4,2,1,,,,,,,,,,,,,,,,,,,,,,,,,,,,,,,,,,,,,,,,,,,,,,
995526,001,2022-11-20_18h49.57.938,Info_measure_main_exp,2022.2.2,Win32,60.09976561,,,,,,,,,,,,,,,,,,masks/mask_005.jpg,,,,,,,,,,,,,,,,,,,,,,,,,,,,,,,,,,,,,,,,,,,,,,,,0,0,0,4,1,,,,,,,,,,,,,,,,,,,,,,,,,,,,,,,,,,,,,,,,,
995526,001,2022-11-20_18h49.57.938,Info_measure_main_exp,2022.2.2,Win32,60.09976561,,,,,,,,,,,,,,,,,,masks/mask_004.jpg,,,,,,,,,,,,,,,,,,,,,,,,,,,,,,,,,,,,,,,,,,,,,,,,0,1,1,3,1,,,,,,,,,,,,,,,,,,,,,,,,,,,,,,,,,,,,,,,,,
995526,001,2022-11-20_18h49.57.938,Info_measure_main_exp,2022.2.2,Win32,60.09976561,,,,,,,,,,,,,,,,,,masks/mask_003.jpg,,,,,,,,,,,,,,,,,,,,,,,,,,,,,,,,,,,,,,,,,,,,,,,,0,2,2,2,1,,,,,,,,,,,,,,,,,,,,,,,,,,,,,,,,,,,,,,,,,
995526,001,2022-11-20_18h49.57.938,Info_measure_main_exp,2022.2.2,Win32,60.09976561,,,,,,,,,,,,,,,,,,masks/mask_002.jpg,,,,,,,,,,,,,,,,,,,,,,,,,,,,,,,,,,,,,,,,,,,,,,,,0,3,3,1,1,,,,,,,,,,,,,,,,,,,,,,,,,,,,,,,,,,,,,,,,,
995526,001,2022-11-20_18h49.57.938,Info_measure_main_exp,2022.2.2,Win32,60.09976561,,,,,,,,,,,,,,,,,,masks/mask_001.jpg,,,,,,,,,,,,,,,,,,,,,,,,,,,,,,,,,,,,,,,,,,,,,,,,0,4,4,0,1,,,,,,,,,,,,,,,,,,,,,,,,,,,,,,,,,,,,,,,,,
995526,001,2022-11-20_18h49.57.938,Info_measure_main_exp,2022.2.2,Win32,60.09976561,,,,,,,,,,,,,,,,,,,,,,,,,,,,,,7,1.2503,1,,,,,,,,,,,,0,131,5,5,2214,1986,absent_patch/patch0002214.jpg,absent_patch/patch0001986.jpg,,,,,,,,,,,,,,,,,,,,0.045715524,0.09147757,1,0,0,response1disk,3,0.00402957,0.001621132,1,0,0,center_square,0,2,2,34,1,,,,,,,,,,,,,,,,,,,,,,,
995526,001,2022-11-20_18h49.57.938,Info_measure_main_exp,2022.2.2,Win32,60.09976561,,,,,,,,,,,,,,,,,,masks/mask_002.jpg,,,,,,,,,,,,,,,,,,,,,,,,,,,,,,,,,,,,,,,,,,,0,0,0,1,1,,,,,,,,,,,,,,,,,,,,,,,,,,,,,,,,,,,,,,,,,,,,,,
995526,001,2022-11-20_18h49.57.938,Info_measure_main_exp,2022.2.2,Win32,60.09976561,,,,,,,,,,,,,,,,,,masks/mask_001.jpg,,,,,,,,,,,,,,,,,,,,,,,,,,,,,,,,,,,,,,,,,,,0,1,1,0,1,,,,,,,,,,,,,,,,,,,,,,,,,,,,,,,,,,,,,,,,,,,,,,
995526,001,2022-11-20_18h49.57.938,Info_measure_main_exp,2022.2.2,Win32,60.09976561,,,,,,,,,,,,,,,,,,masks/mask_005.jpg,,,,,,,,,,,,,,,,,,,,,,,,,,,,,,,,,,,,,,,,,,,0,2,2,4,1,,,,,,,,,,,,,,,,,,,,,,,,,,,,,,,,,,,,,,,,,,,,,,
995526,001,2022-11-20_18h49.57.938,Info_measure_main_exp,2022.2.2,Win32,60.09976561,,,,,,,,,,,,,,,,,,masks/mask_003.jpg,,,,,,,,,,,,,,,,,,,,,,,,,,,,,,,,,,,,,,,,,,,0,3,3,2,1,,,,,,,,,,,,,,,,,,,,,,,,,,,,,,,,,,,,,,,,,,,,,,
995526,001,2022-11-20_18h49.57.938,Info_measure_main_exp,2022.2.2,Win32,60.09976561,,,,,,,,,,,,,,,,,,masks/mask_004.jpg,,,,,,,,,,,,,,,,,,,,,,,,,,,,,,,,,,,,,,,,,,,0,4,4,3,1,,,,,,,,,,,,,,,,,,,,,,,,,,,,,,,,,,,,,,,,,,,,,,
995526,001,2022-11-20_18h49.57.938,Info_measure_main_exp,2022.2.2,Win32,60.09976561,,,,,,,,,,,,,,,,,,masks/mask_004.jpg,,,,,,,,,,,,,,,,,,,,,,,,,,,,,,,,,,,,,,,,,,,,,,,,0,0,0,3,1,,,,,,,,,,,,,,,,,,,,,,,,,,,,,,,,,,,,,,,,,
995526,001,2022-11-20_18h49.57.938,Info_measure_main_exp,2022.2.2,Win32,60.09976561,,,,,,,,,,,,,,,,,,masks/mask_001.jpg,,,,,,,,,,,,,,,,,,,,,,,,,,,,,,,,,,,,,,,,,,,,,,,,0,1,1,0,1,,,,,,,,,,,,,,,,,,,,,,,,,,,,,,,,,,,,,,,,,
995526,001,2022-11-20_18h49.57.938,Info_measure_main_exp,2022.2.2,Win32,60.09976561,,,,,,,,,,,,,,,,,,masks/mask_005.jpg,,,,,,,,,,,,,,,,,,,,,,,,,,,,,,,,,,,,,,,,,,,,,,,,0,2,2,4,1,,,,,,,,,,,,,,,,,,,,,,,,,,,,,,,,,,,,,,,,,
995526,001,2022-11-20_18h49.57.938,Info_measure_main_exp,2022.2.2,Win32,60.09976561,,,,,,,,,,,,,,,,,,masks/mask_002.jpg,,,,,,,,,,,,,,,,,,,,,,,,,,,,,,,,,,,,,,,,,,,,,,,,0,3,3,1,1,,,,,,,,,,,,,,,,,,,,,,,,,,,,,,,,,,,,,,,,,
995526,001,2022-11-20_18h49.57.938,Info_measure_main_exp,2022.2.2,Win32,60.09976561,,,,,,,,,,,,,,,,,,masks/mask_003.jpg,,,,,,,,,,,,,,,,,,,,,,,,,,,,,,,,,,,,,,,,,,,,,,,,0,4,4,2,1,,,,,,,,,,,,,,,,,,,,,,,,,,,,,,,,,,,,,,,,,
995526,001,2022-11-20_18h49.57.938,Info_measure_main_exp,2022.2.2,Win32,60.09976561,,,,,,,,,,,,,,,,,,,,,,,,,,,,,,3,1.4832,1,,,,,,,,,,,,0,131,5,5,1974,1950,absent_patch/patch0001974.jpg,absent_patch/patch0001950.jpg,,,,,,,,,,,,,,,,,,,,-0.057109779,-0.069708156,1,0,0,response5disk,4,0.00402957,-0.001157842,1,0,0,center_square,0,3,3,17,1,,,,,,,,,,,,,,,,,,,,,,,
995526,001,2022-11-20_18h49.57.938,Info_measure_main_exp,2022.2.2,Win32,60.09976561,,,,,,,,,,,,,,,,,,masks/mask_001.jpg,,,,,,,,,,,,,,,,,,,,,,,,,,,,,,,,,,,,,,,,,,,0,0,0,0,1,,,,,,,,,,,,,,,,,,,,,,,,,,,,,,,,,,,,,,,,,,,,,,
995526,001,2022-11-20_18h49.57.938,Info_measure_main_exp,2022.2.2,Win32,60.09976561,,,,,,,,,,,,,,,,,,masks/mask_004.jpg,,,,,,,,,,,,,,,,,,,,,,,,,,,,,,,,,,,,,,,,,,,0,1,1,3,1,,,,,,,,,,,,,,,,,,,,,,,,,,,,,,,,,,,,,,,,,,,,,,
995526,001,2022-11-20_18h49.57.938,Info_measure_main_exp,2022.2.2,Win32,60.09976561,,,,,,,,,,,,,,,,,,masks/mask_002.jpg,,,,,,,,,,,,,,,,,,,,,,,,,,,,,,,,,,,,,,,,,,,0,2,2,1,1,,,,,,,,,,,,,,,,,,,,,,,,,,,,,,,,,,,,,,,,,,,,,,
995526,001,2022-11-20_18h49.57.938,Info_measure_main_exp,2022.2.2,Win32,60.09976561,,,,,,,,,,,,,,,,,,masks/mask_003.jpg,,,,,,,,,,,,,,,,,,,,,,,,,,,,,,,,,,,,,,,,,,,0,3,3,2,1,,,,,,,,,,,,,,,,,,,,,,,,,,,,,,,,,,,,,,,,,,,,,,
995526,001,2022-11-20_18h49.57.938,Info_measure_main_exp,2022.2.2,Win32,60.09976561,,,,,,,,,,,,,,,,,,masks/mask_005.jpg,,,,,,,,,,,,,,,,,,,,,,,,,,,,,,,,,,,,,,,,,,,0,4,4,4,1,,,,,,,,,,,,,,,,,,,,,,,,,,,,,,,,,,,,,,,,,,,,,,
995526,001,2022-11-20_18h49.57.938,Info_measure_main_exp,2022.2.2,Win32,60.09976561,,,,,,,,,,,,,,,,,,masks/mask_003.jpg,,,,,,,,,,,,,,,,,,,,,,,,,,,,,,,,,,,,,,,,,,,,,,,,0,0,0,2,1,,,,,,,,,,,,,,,,,,,,,,,,,,,,,,,,,,,,,,,,,
995526,001,2022-11-20_18h49.57.938,Info_measure_main_exp,2022.2.2,Win32,60.09976561,,,,,,,,,,,,,,,,,,masks/mask_004.jpg,,,,,,,,,,,,,,,,,,,,,,,,,,,,,,,,,,,,,,,,,,,,,,,,0,1,1,3,1,,,,,,,,,,,,,,,,,,,,,,,,,,,,,,,,,,,,,,,,,
995526,001,2022-11-20_18h49.57.938,Info_measure_main_exp,2022.2.2,Win32,60.09976561,,,,,,,,,,,,,,,,,,masks/mask_005.jpg,,,,,,,,,,,,,,,,,,,,,,,,,,,,,,,,,,,,,,,,,,,,,,,,0,2,2,4,1,,,,,,,,,,,,,,,,,,,,,,,,,,,,,,,,,,,,,,,,,
995526,001,2022-11-20_18h49.57.938,Info_measure_main_exp,2022.2.2,Win32,60.09976561,,,,,,,,,,,,,,,,,,masks/mask_002.jpg,,,,,,,,,,,,,,,,,,,,,,,,,,,,,,,,,,,,,,,,,,,,,,,,0,3,3,1,1,,,,,,,,,,,,,,,,,,,,,,,,,,,,,,,,,,,,,,,,,
995526,001,2022-11-20_18h49.57.938,Info_measure_main_exp,2022.2.2,Win32,60.09976561,,,,,,,,,,,,,,,,,,masks/mask_001.jpg,,,,,,,,,,,,,,,,,,,,,,,,,,,,,,,,,,,,,,,,,,,,,,,,0,4,4,0,1,,,,,,,,,,,,,,,,,,,,,,,,,,,,,,,,,,,,,,,,,
995526,001,2022-11-20_18h49.57.938,Info_measure_main_exp,2022.2.2,Win32,60.09976561,,,,,,,,,,,,,,,,,,,,,,,,,,,,,,7,1.7666,1,,,,,,,,,,,,0,131,5,5,2154,2298,absent_patch/patch0002154.jpg,absent_patch/patch0002298.jpg,,,,,,,,,,,,,,,,,,,,0.065169015,0.08962484,1,0,0,response1disk,5,0.00958771,0.000694792,1,0,0,center_square,0,4,4,27,1,,,,,,,,,,,,,,,,,,,,,,,
995526,001,2022-11-20_18h49.57.938,Info_measure_main_exp,2022.2.2,Win32,60.09976561,,,,,,,,,,,,,,,,,,masks/mask_003.jpg,,,,,,,,,,,,,,,,,,,,,,,,,,,,,,,,,,,,,,,,,,,0,0,0,2,1,,,,,,,,,,,,,,,,,,,,,,,,,,,,,,,,,,,,,,,,,,,,,,
995526,001,2022-11-20_18h49.57.938,Info_measure_main_exp,2022.2.2,Win32,60.09976561,,,,,,,,,,,,,,,,,,masks/mask_002.jpg,,,,,,,,,,,,,,,,,,,,,,,,,,,,,,,,,,,,,,,,,,,0,1,1,1,1,,,,,,,,,,,,,,,,,,,,,,,,,,,,,,,,,,,,,,,,,,,,,,
995526,001,2022-11-20_18h49.57.938,Info_measure_main_exp,2022.2.2,Win32,60.09976561,,,,,,,,,,,,,,,,,,masks/mask_004.jpg,,,,,,,,,,,,,,,,,,,,,,,,,,,,,,,,,,,,,,,,,,,0,2,2,3,1,,,,,,,,,,,,,,,,,,,,,,,,,,,,,,,,,,,,,,,,,,,,,,
995526,001,2022-11-20_18h49.57.938,Info_measure_main_exp,2022.2.2,Win32,60.09976561,,,,,,,,,,,,,,,,,,masks/mask_001.jpg,,,,,,,,,,,,,,,,,,,,,,,,,,,,,,,,,,,,,,,,,,,0,3,3,0,1,,,,,,,,,,,,,,,,,,,,,,,,,,,,,,,,,,,,,,,,,,,,,,
995526,001,2022-11-20_18h49.57.938,Info_measure_main_exp,2022.2.2,Win32,60.09976561,,,,,,,,,,,,,,,,,,masks/mask_005.jpg,,,,,,,,,,,,,,,,,,,,,,,,,,,,,,,,,,,,,,,,,,,0,4,4,4,1,,,,,,,,,,,,,,,,,,,,,,,,,,,,,,,,,,,,,,,,,,,,,,
995526,001,2022-11-20_18h49.57.938,Info_measure_main_exp,2022.2.2,Win32,60.09976561,,,,,,,,,,,,,,,,,,masks/mask_004.jpg,,,,,,,,,,,,,,,,,,,,,,,,,,,,,,,,,,,,,,,,,,,,,,,,0,0,0,3,1,,,,,,,,,,,,,,,,,,,,,,,,,,,,,,,,,,,,,,,,,
995526,001,2022-11-20_18h49.57.938,Info_measure_main_exp,2022.2.2,Win32,60.09976561,,,,,,,,,,,,,,,,,,masks/mask_002.jpg,,,,,,,,,,,,,,,,,,,,,,,,,,,,,,,,,,,,,,,,,,,,,,,,0,1,1,1,1,,,,,,,,,,,,,,,,,,,,,,,,,,,,,,,,,,,,,,,,,
995526,001,2022-11-20_18h49.57.938,Info_measure_main_exp,2022.2.2,Win32,60.09976561,,,,,,,,,,,,,,,,,,masks/mask_001.jpg,,,,,,,,,,,,,,,,,,,,,,,,,,,,,,,,,,,,,,,,,,,,,,,,0,2,2,0,1,,,,,,,,,,,,,,,,,,,,,,,,,,,,,,,,,,,,,,,,,
995526,001,2022-11-20_18h49.57.938,Info_measure_main_exp,2022.2.2,Win32,60.09976561,,,,,,,,,,,,,,,,,,masks/mask_003.jpg,,,,,,,,,,,,,,,,,,,,,,,,,,,,,,,,,,,,,,,,,,,,,,,,0,3,3,2,1,,,,,,,,,,,,,,,,,,,,,,,,,,,,,,,,,,,,,,,,,
995526,001,2022-11-20_18h49.57.938,Info_measure_main_exp,2022.2.2,Win32,60.09976561,,,,,,,,,,,,,,,,,,masks/mask_005.jpg,,,,,,,,,,,,,,,,,,,,,,,,,,,,,,,,,,,,,,,,,,,,,,,,0,4,4,4,1,,,,,,,,,,,,,,,,,,,,,,,,,,,,,,,,,,,,,,,,,
995526,001,2022-11-20_18h49.57.938,Info_measure_main_exp,2022.2.2,Win32,60.09976561,,,,,,,,,,,,,,,,,,,,,,,,,,,,,,6,1.4332,1,,,,,,,,,,,,0,131,5,5,1986,2142,absent_patch/patch0001986.jpg,absent_patch/patch0002142.jpg,,,,,,,,,,,,,,,,,,,,0.088327867,0.017369164,1,0,0,response1disk,6,0.007735029,0.001621132,1,0,0,center_square,0,5,5,76,1,,,,,,,,,,,,,,,,,,,,,,,
995526,001,2022-11-20_18h49.57.938,Info_measure_main_exp,2022.2.2,Win32,60.09976561,,,,,,,,,,,,,,,,,,masks/mask_001.jpg,,,,,,,,,,,,,,,,,,,,,,,,,,,,,,,,,,,,,,,,,,,0,0,0,0,1,,,,,,,,,,,,,,,,,,,,,,,,,,,,,,,,,,,,,,,,,,,,,,
995526,001,2022-11-20_18h49.57.938,Info_measure_main_exp,2022.2.2,Win32,60.09976561,,,,,,,,,,,,,,,,,,masks/mask_005.jpg,,,,,,,,,,,,,,,,,,,,,,,,,,,,,,,,,,,,,,,,,,,0,1,1,4,1,,,,,,,,,,,,,,,,,,,,,,,,,,,,,,,,,,,,,,,,,,,,,,
995526,001,2022-11-20_18h49.57.938,Info_measure_main_exp,2022.2.2,Win32,60.09976561,,,,,,,,,,,,,,,,,,masks/mask_003.jpg,,,,,,,,,,,,,,,,,,,,,,,,,,,,,,,,,,,,,,,,,,,0,2,2,2,1,,,,,,,,,,,,,,,,,,,,,,,,,,,,,,,,,,,,,,,,,,,,,,
995526,001,2022-11-20_18h49.57.938,Info_measure_main_exp,2022.2.2,Win32,60.09976561,,,,,,,,,,,,,,,,,,masks/mask_004.jpg,,,,,,,,,,,,,,,,,,,,,,,,,,,,,,,,,,,,,,,,,,,0,3,3,3,1,,,,,,,,,,,,,,,,,,,,,,,,,,,,,,,,,,,,,,,,,,,,,,
995526,001,2022-11-20_18h49.57.938,Info_measure_main_exp,2022.2.2,Win32,60.09976561,,,,,,,,,,,,,,,,,,masks/mask_002.jpg,,,,,,,,,,,,,,,,,,,,,,,,,,,,,,,,,,,,,,,,,,,0,4,4,1,1,,,,,,,,,,,,,,,,,,,,,,,,,,,,,,,,,,,,,,,,,,,,,,
995526,001,2022-11-20_18h49.57.938,Info_measure_main_exp,2022.2.2,Win32,60.09976561,,,,,,,,,,,,,,,,,,masks/mask_004.jpg,,,,,,,,,,,,,,,,,,,,,,,,,,,,,,,,,,,,,,,,,,,,,,,,0,0,0,3,1,,,,,,,,,,,,,,,,,,,,,,,,,,,,,,,,,,,,,,,,,
995526,001,2022-11-20_18h49.57.938,Info_measure_main_exp,2022.2.2,Win32,60.09976561,,,,,,,,,,,,,,,,,,masks/mask_005.jpg,,,,,,,,,,,,,,,,,,,,,,,,,,,,,,,,,,,,,,,,,,,,,,,,0,1,1,4,1,,,,,,,,,,,,,,,,,,,,,,,,,,,,,,,,,,,,,,,,,
995526,001,2022-11-20_18h49.57.938,Info_measure_main_exp,2022.2.2,Win32,60.09976561,,,,,,,,,,,,,,,,,,masks/mask_002.jpg,,,,,,,,,,,,,,,,,,,,,,,,,,,,,,,,,,,,,,,,,,,,,,,,0,2,2,1,1,,,,,,,,,,,,,,,,,,,,,,,,,,,,,,,,,,,,,,,,,
995526,001,2022-11-20_18h49.57.938,Info_measure_main_exp,2022.2.2,Win32,60.09976561,,,,,,,,,,,,,,,,,,masks/mask_003.jpg,,,,,,,,,,,,,,,,,,,,,,,,,,,,,,,,,,,,,,,,,,,,,,,,0,3,3,2,1,,,,,,,,,,,,,,,,,,,,,,,,,,,,,,,,,,,,,,,,,
995526,001,2022-11-20_18h49.57.938,Info_measure_main_exp,2022.2.2,Win32,60.09976561,,,,,,,,,,,,,,,,,,masks/mask_001.jpg,,,,,,,,,,,,,,,,,,,,,,,,,,,,,,,,,,,,,,,,,,,,,,,,0,4,4,0,1,,,,,,,,,,,,,,,,,,,,,,,,,,,,,,,,,,,,,,,,,
995526,001,2022-11-20_18h49.57.938,Info_measure_main_exp,2022.2.2,Win32,60.09976561,,,,,,,,,,,,,,,,,,,,,,,,,,,,,,5,2.3831,1,,,,,,,,,,,,0,131,5,5,1986,2154,absent_patch/patch0001986.jpg,absent_patch/patch0002154.jpg,,,,,,,,,,,,,,,,,,,,0.091106937,-0.061370994,1,0,0,response3disk,7,0.002176889,-0.005789689,1,0,0,center_square,0,6,6,36,1,,,,,,,,,,,,,,,,,,,,,,,
995526,001,2022-11-20_18h49.57.938,Info_measure_main_exp,2022.2.2,Win32,60.09976561,,,,,,,,,,,,,,,,,,masks/mask_004.jpg,,,,,,,,,,,,,,,,,,,,,,,,,,,,,,,,,,,,,,,,,,,0,0,0,3,1,,,,,,,,,,,,,,,,,,,,,,,,,,,,,,,,,,,,,,,,,,,,,,
995526,001,2022-11-20_18h49.57.938,Info_measure_main_exp,2022.2.2,Win32,60.09976561,,,,,,,,,,,,,,,,,,masks/mask_003.jpg,,,,,,,,,,,,,,,,,,,,,,,,,,,,,,,,,,,,,,,,,,,0,1,1,2,1,,,,,,,,,,,,,,,,,,,,,,,,,,,,,,,,,,,,,,,,,,,,,,
995526,001,2022-11-20_18h49.57.938,Info_measure_main_exp,2022.2.2,Win32,60.09976561,,,,,,,,,,,,,,,,,,masks/mask_001.jpg,,,,,,,,,,,,,,,,,,,,,,,,,,,,,,,,,,,,,,,,,,,0,2,2,0,1,,,,,,,,,,,,,,,,,,,,,,,,,,,,,,,,,,,,,,,,,,,,,,
995526,001,2022-11-20_18h49.57.938,Info_measure_main_exp,2022.2.2,Win32,60.09976561,,,,,,,,,,,,,,,,,,masks/mask_005.jpg,,,,,,,,,,,,,,,,,,,,,,,,,,,,,,,,,,,,,,,,,,,0,3,3,4,1,,,,,,,,,,,,,,,,,,,,,,,,,,,,,,,,,,,,,,,,,,,,,,
995526,001,2022-11-20_18h49.57.938,Info_measure_main_exp,2022.2.2,Win32,60.09976561,,,,,,,,,,,,,,,,,,masks/mask_002.jpg,,,,,,,,,,,,,,,,,,,,,,,,,,,,,,,,,,,,,,,,,,,0,4,4,1,1,,,,,,,,,,,,,,,,,,,,,,,,,,,,,,,,,,,,,,,,,,,,,,
995526,001,2022-11-20_18h49.57.938,Info_measure_main_exp,2022.2.2,Win32,60.09976561,,,,,,,,,,,,,,,,,,masks/mask_003.jpg,,,,,,,,,,,,,,,,,,,,,,,,,,,,,,,,,,,,,,,,,,,,,,,,0,0,0,2,1,,,,,,,,,,,,,,,,,,,,,,,,,,,,,,,,,,,,,,,,,
995526,001,2022-11-20_18h49.57.938,Info_measure_main_exp,2022.2.2,Win32,60.09976561,,,,,,,,,,,,,,,,,,masks/mask_001.jpg,,,,,,,,,,,,,,,,,,,,,,,,,,,,,,,,,,,,,,,,,,,,,,,,0,1,1,0,1,,,,,,,,,,,,,,,,,,,,,,,,,,,,,,,,,,,,,,,,,
995526,001,2022-11-20_18h49.57.938,Info_measure_main_exp,2022.2.2,Win32,60.09976561,,,,,,,,,,,,,,,,,,masks/mask_004.jpg,,,,,,,,,,,,,,,,,,,,,,,,,,,,,,,,,,,,,,,,,,,,,,,,0,2,2,3,1,,,,,,,,,,,,,,,,,,,,,,,,,,,,,,,,,,,,,,,,,
995526,001,2022-11-20_18h49.57.938,Info_measure_main_exp,2022.2.2,Win32,60.09976561,,,,,,,,,,,,,,,,,,masks/mask_005.jpg,,,,,,,,,,,,,,,,,,,,,,,,,,,,,,,,,,,,,,,,,,,,,,,,0,3,3,4,1,,,,,,,,,,,,,,,,,,,,,,,,,,,,,,,,,,,,,,,,,
995526,001,2022-11-20_18h49.57.938,Info_measure_main_exp,2022.2.2,Win32,60.09976561,,,,,,,,,,,,,,,,,,masks/mask_002.jpg,,,,,,,,,,,,,,,,,,,,,,,,,,,,,,,,,,,,,,,,,,,,,,,,0,4,4,1,1,,,,,,,,,,,,,,,,,,,,,,,,,,,,,,,,,,,,,,,,,
995526,001,2022-11-20_18h49.57.938,Info_measure_main_exp,2022.2.2,Win32,60.09976561,,,,,,,,,,,,,,,,,,,,,,,,,,,,,,7,1.3332,1,,,,,,,,,,,,0,131,5,5,2238,2166,absent_patch/patch0002238.jpg,absent_patch/patch0002166.jpg,,,,,,,,,,,,,,,,,,,,0.051273664,0.064613258,1,0,0,response1disk,8,-0.000602182,0.007179272,1,0,0,center_square,0,7,7,118,1,,,,,,,,,,,,,,,,,,,,,,,
995526,001,2022-11-20_18h49.57.938,Info_measure_main_exp,2022.2.2,Win32,60.09976561,,,,,,,,,,,,,,,,,,masks/mask_002.jpg,,,,,,,,,,,,,,,,,,,,,,,,,,,,,,,,,,,,,,,,,,,0,0,0,1,1,,,,,,,,,,,,,,,,,,,,,,,,,,,,,,,,,,,,,,,,,,,,,,
995526,001,2022-11-20_18h49.57.938,Info_measure_main_exp,2022.2.2,Win32,60.09976561,,,,,,,,,,,,,,,,,,masks/mask_004.jpg,,,,,,,,,,,,,,,,,,,,,,,,,,,,,,,,,,,,,,,,,,,0,1,1,3,1,,,,,,,,,,,,,,,,,,,,,,,,,,,,,,,,,,,,,,,,,,,,,,
995526,001,2022-11-20_18h49.57.938,Info_measure_main_exp,2022.2.2,Win32,60.09976561,,,,,,,,,,,,,,,,,,masks/mask_003.jpg,,,,,,,,,,,,,,,,,,,,,,,,,,,,,,,,,,,,,,,,,,,0,2,2,2,1,,,,,,,,,,,,,,,,,,,,,,,,,,,,,,,,,,,,,,,,,,,,,,
995526,001,2022-11-20_18h49.57.938,Info_measure_main_exp,2022.2.2,Win32,60.09976561,,,,,,,,,,,,,,,,,,masks/mask_005.jpg,,,,,,,,,,,,,,,,,,,,,,,,,,,,,,,,,,,,,,,,,,,0,3,3,4,1,,,,,,,,,,,,,,,,,,,,,,,,,,,,,,,,,,,,,,,,,,,,,,
995526,001,2022-11-20_18h49.57.938,Info_measure_main_exp,2022.2.2,Win32,60.09976561,,,,,,,,,,,,,,,,,,masks/mask_001.jpg,,,,,,,,,,,,,,,,,,,,,,,,,,,,,,,,,,,,,,,,,,,0,4,4,0,1,,,,,,,,,,,,,,,,,,,,,,,,,,,,,,,,,,,,,,,,,,,,,,
995526,001,2022-11-20_18h49.57.938,Info_measure_main_exp,2022.2.2,Win32,60.09976561,,,,,,,,,,,,,,,,,,masks/mask_002.jpg,,,,,,,,,,,,,,,,,,,,,,,,,,,,,,,,,,,,,,,,,,,,,,,,0,0,0,1,1,,,,,,,,,,,,,,,,,,,,,,,,,,,,,,,,,,,,,,,,,
995526,001,2022-11-20_18h49.57.938,Info_measure_main_exp,2022.2.2,Win32,60.09976561,,,,,,,,,,,,,,,,,,masks/mask_003.jpg,,,,,,,,,,,,,,,,,,,,,,,,,,,,,,,,,,,,,,,,,,,,,,,,0,1,1,2,1,,,,,,,,,,,,,,,,,,,,,,,,,,,,,,,,,,,,,,,,,
995526,001,2022-11-20_18h49.57.938,Info_measure_main_exp,2022.2.2,Win32,60.09976561,,,,,,,,,,,,,,,,,,masks/mask_001.jpg,,,,,,,,,,,,,,,,,,,,,,,,,,,,,,,,,,,,,,,,,,,,,,,,0,2,2,0,1,,,,,,,,,,,,,,,,,,,,,,,,,,,,,,,,,,,,,,,,,
995526,001,2022-11-20_18h49.57.938,Info_measure_main_exp,2022.2.2,Win32,60.09976561,,,,,,,,,,,,,,,,,,masks/mask_005.jpg,,,,,,,,,,,,,,,,,,,,,,,,,,,,,,,,,,,,,,,,,,,,,,,,0,3,3,4,1,,,,,,,,,,,,,,,,,,,,,,,,,,,,,,,,,,,,,,,,,
995526,001,2022-11-20_18h49.57.938,Info_measure_main_exp,2022.2.2,Win32,60.09976561,,,,,,,,,,,,,,,,,,masks/mask_004.jpg,,,,,,,,,,,,,,,,,,,,,,,,,,,,,,,,,,,,,,,,,,,,,,,,0,4,4,3,1,,,,,,,,,,,,,,,,,,,,,,,,,,,,,,,,,,,,,,,,,
995526,001,2022-11-20_18h49.57.938,Info_measure_main_exp,2022.2.2,Win32,60.09976561,,,,,,,,,,,,,,,,,,,,,,,,,,,,,,7,2.5167,1,,,,,,,,,,,,0,131,5,5,2238,2214,absent_patch/patch0002238.jpg,absent_patch/patch0002214.jpg,,,,,,,,,,,,,,,,,,,,0.018851309,0.050717956,1,0,0,response1disk,9,0.000324207,0.007179272,1,0,0,center_square,0,8,8,81,1,,,,,,,,,,,,,,,,,,,,,,,
995526,001,2022-11-20_18h49.57.938,Info_measure_main_exp,2022.2.2,Win32,60.09976561,,,,,,,,,,,,,,,,,,masks/mask_004.jpg,,,,,,,,,,,,,,,,,,,,,,,,,,,,,,,,,,,,,,,,,,,0,0,0,3,1,,,,,,,,,,,,,,,,,,,,,,,,,,,,,,,,,,,,,,,,,,,,,,
995526,001,2022-11-20_18h49.57.938,Info_measure_main_exp,2022.2.2,Win32,60.09976561,,,,,,,,,,,,,,,,,,masks/mask_003.jpg,,,,,,,,,,,,,,,,,,,,,,,,,,,,,,,,,,,,,,,,,,,0,1,1,2,1,,,,,,,,,,,,,,,,,,,,,,,,,,,,,,,,,,,,,,,,,,,,,,
995526,001,2022-11-20_18h49.57.938,Info_measure_main_exp,2022.2.2,Win32,60.09976561,,,,,,,,,,,,,,,,,,masks/mask_001.jpg,,,,,,,,,,,,,,,,,,,,,,,,,,,,,,,,,,,,,,,,,,,0,2,2,0,1,,,,,,,,,,,,,,,,,,,,,,,,,,,,,,,,,,,,,,,,,,,,,,
995526,001,2022-11-20_18h49.57.938,Info_measure_main_exp,2022.2.2,Win32,60.09976561,,,,,,,,,,,,,,,,,,masks/mask_005.jpg,,,,,,,,,,,,,,,,,,,,,,,,,,,,,,,,,,,,,,,,,,,0,3,3,4,1,,,,,,,,,,,,,,,,,,,,,,,,,,,,,,,,,,,,,,,,,,,,,,
995526,001,2022-11-20_18h49.57.938,Info_measure_main_exp,2022.2.2,Win32,60.09976561,,,,,,,,,,,,,,,,,,masks/mask_002.jpg,,,,,,,,,,,,,,,,,,,,,,,,,,,,,,,,,,,,,,,,,,,0,4,4,1,1,,,,,,,,,,,,,,,,,,,,,,,,,,,,,,,,,,,,,,,,,,,,,,
995526,001,2022-11-20_18h49.57.938,Info_measure_main_exp,2022.2.2,Win32,60.09976561,,,,,,,,,,,,,,,,,,masks/mask_002.jpg,,,,,,,,,,,,,,,,,,,,,,,,,,,,,,,,,,,,,,,,,,,,,,,,0,0,0,1,1,,,,,,,,,,,,,,,,,,,,,,,,,,,,,,,,,,,,,,,,,
995526,001,2022-11-20_18h49.57.938,Info_measure_main_exp,2022.2.2,Win32,60.09976561,,,,,,,,,,,,,,,,,,masks/mask_003.jpg,,,,,,,,,,,,,,,,,,,,,,,,,,,,,,,,,,,,,,,,,,,,,,,,0,1,1,2,1,,,,,,,,,,,,,,,,,,,,,,,,,,,,,,,,,,,,,,,,,
995526,001,2022-11-20_18h49.57.938,Info_measure_main_exp,2022.2.2,Win32,60.09976561,,,,,,,,,,,,,,,,,,masks/mask_001.jpg,,,,,,,,,,,,,,,,,,,,,,,,,,,,,,,,,,,,,,,,,,,,,,,,0,2,2,0,1,,,,,,,,,,,,,,,,,,,,,,,,,,,,,,,,,,,,,,,,,
995526,001,2022-11-20_18h49.57.938,Info_measure_main_exp,2022.2.2,Win32,60.09976561,,,,,,,,,,,,,,,,,,masks/mask_005.jpg,,,,,,,,,,,,,,,,,,,,,,,,,,,,,,,,,,,,,,,,,,,,,,,,0,3,3,4,1,,,,,,,,,,,,,,,,,,,,,,,,,,,,,,,,,,,,,,,,,
995526,001,2022-11-20_18h49.57.938,Info_measure_main_exp,2022.2.2,Win32,60.09976561,,,,,,,,,,,,,,,,,,masks/mask_004.jpg,,,,,,,,,,,,,,,,,,,,,,,,,,,,,,,,,,,,,,,,,,,,,,,,0,4,4,3,1,,,,,,,,,,,,,,,,,,,,,,,,,,,,,,,,,,,,,,,,,
995526,001,2022-11-20_18h49.57.938,Info_measure_main_exp,2022.2.2,Win32,60.09976561,,,,,,,,,,,,,,,,,,,,,,,,,,,,,,4,1.3834,1,,,,,,,,,,,,0,131,5,5,2250,2142,absent_patch/patch0002250.jpg,absent_patch/patch0002142.jpg,,,,,,,,,,,,,,,,,,,,0.022556671,-0.102130511,1,0,0,response3disk,10,0.0012505,-0.003010619,1,0,0,center_square,0,9,9,71,1,,,,,,,,,,,,,,,,,,,,,,,
995526,001,2022-11-20_18h49.57.938,Info_measure_main_exp,2022.2.2,Win32,60.09976561,,,,,,,,,,,,,,,,,,masks/mask_004.jpg,,,,,,,,,,,,,,,,,,,,,,,,,,,,,,,,,,,,,,,,,,,0,0,0,3,1,,,,,,,,,,,,,,,,,,,,,,,,,,,,,,,,,,,,,,,,,,,,,,
995526,001,2022-11-20_18h49.57.938,Info_measure_main_exp,2022.2.2,Win32,60.09976561,,,,,,,,,,,,,,,,,,masks/mask_002.jpg,,,,,,,,,,,,,,,,,,,,,,,,,,,,,,,,,,,,,,,,,,,0,1,1,1,1,,,,,,,,,,,,,,,,,,,,,,,,,,,,,,,,,,,,,,,,,,,,,,
995526,001,2022-11-20_18h49.57.938,Info_measure_main_exp,2022.2.2,Win32,60.09976561,,,,,,,,,,,,,,,,,,masks/mask_001.jpg,,,,,,,,,,,,,,,,,,,,,,,,,,,,,,,,,,,,,,,,,,,0,2,2,0,1,,,,,,,,,,,,,,,,,,,,,,,,,,,,,,,,,,,,,,,,,,,,,,
995526,001,2022-11-20_18h49.57.938,Info_measure_main_exp,2022.2.2,Win32,60.09976561,,,,,,,,,,,,,,,,,,masks/mask_005.jpg,,,,,,,,,,,,,,,,,,,,,,,,,,,,,,,,,,,,,,,,,,,0,3,3,4,1,,,,,,,,,,,,,,,,,,,,,,,,,,,,,,,,,,,,,,,,,,,,,,
995526,001,2022-11-20_18h49.57.938,Info_measure_main_exp,2022.2.2,Win32,60.09976561,,,,,,,,,,,,,,,,,,masks/mask_003.jpg,,,,,,,,,,,,,,,,,,,,,,,,,,,,,,,,,,,,,,,,,,,0,4,4,2,1,,,,,,,,,,,,,,,,,,,,,,,,,,,,,,,,,,,,,,,,,,,,,,
995526,001,2022-11-20_18h49.57.938,Info_measure_main_exp,2022.2.2,Win32,60.09976561,,,,,,,,,,,,,,,,,,masks/mask_002.jpg,,,,,,,,,,,,,,,,,,,,,,,,,,,,,,,,,,,,,,,,,,,,,,,,0,0,0,1,1,,,,,,,,,,,,,,,,,,,,,,,,,,,,,,,,,,,,,,,,,
995526,001,2022-11-20_18h49.57.938,Info_measure_main_exp,2022.2.2,Win32,60.09976561,,,,,,,,,,,,,,,,,,masks/mask_004.jpg,,,,,,,,,,,,,,,,,,,,,,,,,,,,,,,,,,,,,,,,,,,,,,,,0,1,1,3,1,,,,,,,,,,,,,,,,,,,,,,,,,,,,,,,,,,,,,,,,,
995526,001,2022-11-20_18h49.57.938,Info_measure_main_exp,2022.2.2,Win32,60.09976561,,,,,,,,,,,,,,,,,,masks/mask_001.jpg,,,,,,,,,,,,,,,,,,,,,,,,,,,,,,,,,,,,,,,,,,,,,,,,0,2,2,0,1,,,,,,,,,,,,,,,,,,,,,,,,,,,,,,,,,,,,,,,,,
995526,001,2022-11-20_18h49.57.938,Info_measure_main_exp,2022.2.2,Win32,60.09976561,,,,,,,,,,,,,,,,,,masks/mask_005.jpg,,,,,,,,,,,,,,,,,,,,,,,,,,,,,,,,,,,,,,,,,,,,,,,,0,3,3,4,1,,,,,,,,,,,,,,,,,,,,,,,,,,,,,,,,,,,,,,,,,
995526,001,2022-11-20_18h49.57.938,Info_measure_main_exp,2022.2.2,Win32,60.09976561,,,,,,,,,,,,,,,,,,masks/mask_003.jpg,,,,,,,,,,,,,,,,,,,,,,,,,,,,,,,,,,,,,,,,,,,,,,,,0,4,4,2,1,,,,,,,,,,,,,,,,,,,,,,,,,,,,,,,,,,,,,,,,,
995526,001,2022-11-20_18h49.57.938,Info_measure_main_exp,2022.2.2,Win32,60.09976561,,,,,,,,,,,,,,,,,,,,,,,,,,,,,,0,0.7333,1,,,,,,,,,,,,0,131,5,5,2166,2166,absent_patch/patch0002166.jpg,absent_patch/patch0002166.jpg,,,,,,,,,,,,,,,,,,,,-0.042288136,0.088698548,1,0,0,response7disk,11,0.005882347,-0.008568759,1,0,0,center_square,0,10,10,42,1,,,,,,,,,,,,,,,,,,,,,,,
995526,001,2022-11-20_18h49.57.938,Info_measure_main_exp,2022.2.2,Win32,60.09976561,,,,,,,,,,,,,,,,,,masks/mask_001.jpg,,,,,,,,,,,,,,,,,,,,,,,,,,,,,,,,,,,,,,,,,,,0,0,0,0,1,,,,,,,,,,,,,,,,,,,,,,,,,,,,,,,,,,,,,,,,,,,,,,
995526,001,2022-11-20_18h49.57.938,Info_measure_main_exp,2022.2.2,Win32,60.09976561,,,,,,,,,,,,,,,,,,masks/mask_005.jpg,,,,,,,,,,,,,,,,,,,,,,,,,,,,,,,,,,,,,,,,,,,0,1,1,4,1,,,,,,,,,,,,,,,,,,,,,,,,,,,,,,,,,,,,,,,,,,,,,,
995526,001,2022-11-20_18h49.57.938,Info_measure_main_exp,2022.2.2,Win32,60.09976561,,,,,,,,,,,,,,,,,,masks/mask_003.jpg,,,,,,,,,,,,,,,,,,,,,,,,,,,,,,,,,,,,,,,,,,,0,2,2,2,1,,,,,,,,,,,,,,,,,,,,,,,,,,,,,,,,,,,,,,,,,,,,,,
995526,001,2022-11-20_18h49.57.938,Info_measure_main_exp,2022.2.2,Win32,60.09976561,,,,,,,,,,,,,,,,,,masks/mask_002.jpg,,,,,,,,,,,,,,,,,,,,,,,,,,,,,,,,,,,,,,,,,,,0,3,3,1,1,,,,,,,,,,,,,,,,,,,,,,,,,,,,,,,,,,,,,,,,,,,,,,
995526,001,2022-11-20_18h49.57.938,Info_measure_main_exp,2022.2.2,Win32,60.09976561,,,,,,,,,,,,,,,,,,masks/mask_004.jpg,,,,,,,,,,,,,,,,,,,,,,,,,,,,,,,,,,,,,,,,,,,0,4,4,3,1,,,,,,,,,,,,,,,,,,,,,,,,,,,,,,,,,,,,,,,,,,,,,,
995526,001,2022-11-20_18h49.57.938,Info_measure_main_exp,2022.2.2,Win32,60.09976561,,,,,,,,,,,,,,,,,,masks/mask_004.jpg,,,,,,,,,,,,,,,,,,,,,,,,,,,,,,,,,,,,,,,,,,,,,,,,0,0,0,3,1,,,,,,,,,,,,,,,,,,,,,,,,,,,,,,,,,,,,,,,,,
995526,001,2022-11-20_18h49.57.938,Info_measure_main_exp,2022.2.2,Win32,60.09976561,,,,,,,,,,,,,,,,,,masks/mask_001.jpg,,,,,,,,,,,,,,,,,,,,,,,,,,,,,,,,,,,,,,,,,,,,,,,,0,1,1,0,1,,,,,,,,,,,,,,,,,,,,,,,,,,,,,,,,,,,,,,,,,
995526,001,2022-11-20_18h49.57.938,Info_measure_main_exp,2022.2.2,Win32,60.09976561,,,,,,,,,,,,,,,,,,masks/mask_002.jpg,,,,,,,,,,,,,,,,,,,,,,,,,,,,,,,,,,,,,,,,,,,,,,,,0,2,2,1,1,,,,,,,,,,,,,,,,,,,,,,,,,,,,,,,,,,,,,,,,,
995526,001,2022-11-20_18h49.57.938,Info_measure_main_exp,2022.2.2,Win32,60.09976561,,,,,,,,,,,,,,,,,,masks/mask_005.jpg,,,,,,,,,,,,,,,,,,,,,,,,,,,,,,,,,,,,,,,,,,,,,,,,0,3,3,4,1,,,,,,,,,,,,,,,,,,,,,,,,,,,,,,,,,,,,,,,,,
995526,001,2022-11-20_18h49.57.938,Info_measure_main_exp,2022.2.2,Win32,60.09976561,,,,,,,,,,,,,,,,,,masks/mask_003.jpg,,,,,,,,,,,,,,,,,,,,,,,,,,,,,,,,,,,,,,,,,,,,,,,,0,4,4,2,1,,,,,,,,,,,,,,,,,,,,,,,,,,,,,,,,,,,,,,,,,
995526,001,2022-11-20_18h49.57.938,Info_measure_main_exp,2022.2.2,Win32,60.09976561,,,,,,,,,,,,,,,,,,,,,,,,,,,,,,3,1.7499,1,,,,,,,,,,,,0,131,5,5,2190,2178,absent_patch/patch0002190.jpg,absent_patch/patch0002178.jpg,,,,,,,,,,,,,,,,,,,,-0.017276602,-0.083603506,1,0,0,response5disk,12,0.013293169,-0.008568759,1,0,0,center_square,0,11,11,14,1,,,,,,,,,,,,,,,,,,,,,,,
995526,001,2022-11-20_18h49.57.938,Info_measure_main_exp,2022.2.2,Win32,60.09976561,,,,,,,,,,,,,,,,,,masks/mask_002.jpg,,,,,,,,,,,,,,,,,,,,,,,,,,,,,,,,,,,,,,,,,,,0,0,0,1,1,,,,,,,,,,,,,,,,,,,,,,,,,,,,,,,,,,,,,,,,,,,,,,
995526,001,2022-11-20_18h49.57.938,Info_measure_main_exp,2022.2.2,Win32,60.09976561,,,,,,,,,,,,,,,,,,masks/mask_003.jpg,,,,,,,,,,,,,,,,,,,,,,,,,,,,,,,,,,,,,,,,,,,0,1,1,2,1,,,,,,,,,,,,,,,,,,,,,,,,,,,,,,,,,,,,,,,,,,,,,,
995526,001,2022-11-20_18h49.57.938,Info_measure_main_exp,2022.2.2,Win32,60.09976561,,,,,,,,,,,,,,,,,,masks/mask_004.jpg,,,,,,,,,,,,,,,,,,,,,,,,,,,,,,,,,,,,,,,,,,,0,2,2,3,1,,,,,,,,,,,,,,,,,,,,,,,,,,,,,,,,,,,,,,,,,,,,,,
995526,001,2022-11-20_18h49.57.938,Info_measure_main_exp,2022.2.2,Win32,60.09976561,,,,,,,,,,,,,,,,,,masks/mask_005.jpg,,,,,,,,,,,,,,,,,,,,,,,,,,,,,,,,,,,,,,,,,,,0,3,3,4,1,,,,,,,,,,,,,,,,,,,,,,,,,,,,,,,,,,,,,,,,,,,,,,
995526,001,2022-11-20_18h49.57.938,Info_measure_main_exp,2022.2.2,Win32,60.09976561,,,,,,,,,,,,,,,,,,masks/mask_001.jpg,,,,,,,,,,,,,,,,,,,,,,,,,,,,,,,,,,,,,,,,,,,0,4,4,0,1,,,,,,,,,,,,,,,,,,,,,,,,,,,,,,,,,,,,,,,,,,,,,,
995526,001,2022-11-20_18h49.57.938,Info_measure_main_exp,2022.2.2,Win32,60.09976561,,,,,,,,,,,,,,,,,,masks/mask_003.jpg,,,,,,,,,,,,,,,,,,,,,,,,,,,,,,,,,,,,,,,,,,,,,,,,0,0,0,2,1,,,,,,,,,,,,,,,,,,,,,,,,,,,,,,,,,,,,,,,,,
995526,001,2022-11-20_18h49.57.938,Info_measure_main_exp,2022.2.2,Win32,60.09976561,,,,,,,,,,,,,,,,,,masks/mask_005.jpg,,,,,,,,,,,,,,,,,,,,,,,,,,,,,,,,,,,,,,,,,,,,,,,,0,1,1,4,1,,,,,,,,,,,,,,,,,,,,,,,,,,,,,,,,,,,,,,,,,
995526,001,2022-11-20_18h49.57.938,Info_measure_main_exp,2022.2.2,Win32,60.09976561,,,,,,,,,,,,,,,,,,masks/mask_004.jpg,,,,,,,,,,,,,,,,,,,,,,,,,,,,,,,,,,,,,,,,,,,,,,,,0,2,2,3,1,,,,,,,,,,,,,,,,,,,,,,,,,,,,,,,,,,,,,,,,,
995526,001,2022-11-20_18h49.57.938,Info_measure_main_exp,2022.2.2,Win32,60.09976561,,,,,,,,,,,,,,,,,,masks/mask_001.jpg,,,,,,,,,,,,,,,,,,,,,,,,,,,,,,,,,,,,,,,,,,,,,,,,0,3,3,0,1,,,,,,,,,,,,,,,,,,,,,,,,,,,,,,,,,,,,,,,,,
995526,001,2022-11-20_18h49.57.938,Info_measure_main_exp,2022.2.2,Win32,60.09976561,,,,,,,,,,,,,,,,,,masks/mask_002.jpg,,,,,,,,,,,,,,,,,,,,,,,,,,,,,,,,,,,,,,,,,,,,,,,,0,4,4,1,1,,,,,,,,,,,,,,,,,,,,,,,,,,,,,,,,,,,,,,,,,
995526,001,2022-11-20_18h49.57.938,Info_measure_main_exp,2022.2.2,Win32,60.09976561,,,,,,,,,,,,,,,,,,,,,,,,,,,,,,7,1.0997,1,,,,,,,,,,,,0,131,5,5,1950,2214,absent_patch/patch0001950.jpg,absent_patch/patch0002214.jpg,,,,,,,,,,,,,,,,,,,,0.065169015,0.105372872,1,0,0,response1disk,13,0.00402957,0.009958342,1,0,0,center_square,0,12,12,85,1,,,,,,,,,,,,,,,,,,,,,,,
995526,001,2022-11-20_18h49.57.938,Info_measure_main_exp,2022.2.2,Win32,60.09976561,,,,,,,,,,,,,,,,,,masks/mask_004.jpg,,,,,,,,,,,,,,,,,,,,,,,,,,,,,,,,,,,,,,,,,,,0,0,0,3,1,,,,,,,,,,,,,,,,,,,,,,,,,,,,,,,,,,,,,,,,,,,,,,
995526,001,2022-11-20_18h49.57.938,Info_measure_main_exp,2022.2.2,Win32,60.09976561,,,,,,,,,,,,,,,,,,masks/mask_001.jpg,,,,,,,,,,,,,,,,,,,,,,,,,,,,,,,,,,,,,,,,,,,0,1,1,0,1,,,,,,,,,,,,,,,,,,,,,,,,,,,,,,,,,,,,,,,,,,,,,,
995526,001,2022-11-20_18h49.57.938,Info_measure_main_exp,2022.2.2,Win32,60.09976561,,,,,,,,,,,,,,,,,,masks/mask_003.jpg,,,,,,,,,,,,,,,,,,,,,,,,,,,,,,,,,,,,,,,,,,,0,2,2,2,1,,,,,,,,,,,,,,,,,,,,,,,,,,,,,,,,,,,,,,,,,,,,,,
995526,001,2022-11-20_18h49.57.938,Info_measure_main_exp,2022.2.2,Win32,60.09976561,,,,,,,,,,,,,,,,,,masks/mask_005.jpg,,,,,,,,,,,,,,,,,,,,,,,,,,,,,,,,,,,,,,,,,,,0,3,3,4,1,,,,,,,,,,,,,,,,,,,,,,,,,,,,,,,,,,,,,,,,,,,,,,
995526,001,2022-11-20_18h49.57.938,Info_measure_main_exp,2022.2.2,Win32,60.09976561,,,,,,,,,,,,,,,,,,masks/mask_002.jpg,,,,,,,,,,,,,,,,,,,,,,,,,,,,,,,,,,,,,,,,,,,0,4,4,1,1,,,,,,,,,,,,,,,,,,,,,,,,,,,,,,,,,,,,,,,,,,,,,,
995526,001,2022-11-20_18h49.57.938,Info_measure_main_exp,2022.2.2,Win32,60.09976561,,,,,,,,,,,,,,,,,,masks/mask_003.jpg,,,,,,,,,,,,,,,,,,,,,,,,,,,,,,,,,,,,,,,,,,,,,,,,0,0,0,2,1,,,,,,,,,,,,,,,,,,,,,,,,,,,,,,,,,,,,,,,,,
995526,001,2022-11-20_18h49.57.938,Info_measure_main_exp,2022.2.2,Win32,60.09976561,,,,,,,,,,,,,,,,,,masks/mask_002.jpg,,,,,,,,,,,,,,,,,,,,,,,,,,,,,,,,,,,,,,,,,,,,,,,,0,1,1,1,1,,,,,,,,,,,,,,,,,,,,,,,,,,,,,,,,,,,,,,,,,
995526,001,2022-11-20_18h49.57.938,Info_measure_main_exp,2022.2.2,Win32,60.09976561,,,,,,,,,,,,,,,,,,masks/mask_005.jpg,,,,,,,,,,,,,,,,,,,,,,,,,,,,,,,,,,,,,,,,,,,,,,,,0,2,2,4,1,,,,,,,,,,,,,,,,,,,,,,,,,,,,,,,,,,,,,,,,,
995526,001,2022-11-20_18h49.57.938,Info_measure_main_exp,2022.2.2,Win32,60.09976561,,,,,,,,,,,,,,,,,,masks/mask_001.jpg,,,,,,,,,,,,,,,,,,,,,,,,,,,,,,,,,,,,,,,,,,,,,,,,0,3,3,0,1,,,,,,,,,,,,,,,,,,,,,,,,,,,,,,,,,,,,,,,,,
995526,001,2022-11-20_18h49.57.938,Info_measure_main_exp,2022.2.2,Win32,60.09976561,,,,,,,,,,,,,,,,,,masks/mask_004.jpg,,,,,,,,,,,,,,,,,,,,,,,,,,,,,,,,,,,,,,,,,,,,,,,,0,4,4,3,1,,,,,,,,,,,,,,,,,,,,,,,,,,,,,,,,,,,,,,,,,
995526,001,2022-11-20_18h49.57.938,Info_measure_main_exp,2022.2.2,Win32,60.09976561,,,,,,,,,,,,,,,,,,,,,,,,,,,,,,5,0.95,1,,,,,,,,,,,,0,131,5,5,2274,2154,absent_patch/patch0002274.jpg,absent_patch/patch0002154.jpg,,,,,,,,,,,,,,,,,,,,0.047568302,-0.030801271,1,0,0,response3disk,14,-0.008939392,0.006252932,1,0,0,center_square,0,13,13,23,1,,,,,,,,,,,,,,,,,,,,,,,
995526,001,2022-11-20_18h49.57.938,Info_measure_main_exp,2022.2.2,Win32,60.09976561,,,,,,,,,,,,,,,,,,masks/mask_004.jpg,,,,,,,,,,,,,,,,,,,,,,,,,,,,,,,,,,,,,,,,,,,0,0,0,3,1,,,,,,,,,,,,,,,,,,,,,,,,,,,,,,,,,,,,,,,,,,,,,,
995526,001,2022-11-20_18h49.57.938,Info_measure_main_exp,2022.2.2,Win32,60.09976561,,,,,,,,,,,,,,,,,,masks/mask_005.jpg,,,,,,,,,,,,,,,,,,,,,,,,,,,,,,,,,,,,,,,,,,,0,1,1,4,1,,,,,,,,,,,,,,,,,,,,,,,,,,,,,,,,,,,,,,,,,,,,,,
995526,001,2022-11-20_18h49.57.938,Info_measure_main_exp,2022.2.2,Win32,60.09976561,,,,,,,,,,,,,,,,,,masks/mask_002.jpg,,,,,,,,,,,,,,,,,,,,,,,,,,,,,,,,,,,,,,,,,,,0,2,2,1,1,,,,,,,,,,,,,,,,,,,,,,,,,,,,,,,,,,,,,,,,,,,,,,
995526,001,2022-11-20_18h49.57.938,Info_measure_main_exp,2022.2.2,Win32,60.09976561,,,,,,,,,,,,,,,,,,masks/mask_003.jpg,,,,,,,,,,,,,,,,,,,,,,,,,,,,,,,,,,,,,,,,,,,0,3,3,2,1,,,,,,,,,,,,,,,,,,,,,,,,,,,,,,,,,,,,,,,,,,,,,,
995526,001,2022-11-20_18h49.57.938,Info_measure_main_exp,2022.2.2,Win32,60.09976561,,,,,,,,,,,,,,,,,,masks/mask_001.jpg,,,,,,,,,,,,,,,,,,,,,,,,,,,,,,,,,,,,,,,,,,,0,4,4,0,1,,,,,,,,,,,,,,,,,,,,,,,,,,,,,,,,,,,,,,,,,,,,,,
995526,001,2022-11-20_18h49.57.938,Info_measure_main_exp,2022.2.2,Win32,60.09976561,,,,,,,,,,,,,,,,,,masks/mask_001.jpg,,,,,,,,,,,,,,,,,,,,,,,,,,,,,,,,,,,,,,,,,,,,,,,,0,0,0,0,1,,,,,,,,,,,,,,,,,,,,,,,,,,,,,,,,,,,,,,,,,
995526,001,2022-11-20_18h49.57.938,Info_measure_main_exp,2022.2.2,Win32,60.09976561,,,,,,,,,,,,,,,,,,masks/mask_004.jpg,,,,,,,,,,,,,,,,,,,,,,,,,,,,,,,,,,,,,,,,,,,,,,,,0,1,1,3,1,,,,,,,,,,,,,,,,,,,,,,,,,,,,,,,,,,,,,,,,,
995526,001,2022-11-20_18h49.57.938,Info_measure_main_exp,2022.2.2,Win32,60.09976561,,,,,,,,,,,,,,,,,,masks/mask_005.jpg,,,,,,,,,,,,,,,,,,,,,,,,,,,,,,,,,,,,,,,,,,,,,,,,0,2,2,4,1,,,,,,,,,,,,,,,,,,,,,,,,,,,,,,,,,,,,,,,,,
995526,001,2022-11-20_18h49.57.938,Info_measure_main_exp,2022.2.2,Win32,60.09976561,,,,,,,,,,,,,,,,,,masks/mask_003.jpg,,,,,,,,,,,,,,,,,,,,,,,,,,,,,,,,,,,,,,,,,,,,,,,,0,3,3,2,1,,,,,,,,,,,,,,,,,,,,,,,,,,,,,,,,,,,,,,,,,
995526,001,2022-11-20_18h49.57.938,Info_measure_main_exp,2022.2.2,Win32,60.09976561,,,,,,,,,,,,,,,,,,masks/mask_002.jpg,,,,,,,,,,,,,,,,,,,,,,,,,,,,,,,,,,,,,,,,,,,,,,,,0,4,4,1,1,,,,,,,,,,,,,,,,,,,,,,,,,,,,,,,,,,,,,,,,,
995526,001,2022-11-20_18h49.57.938,Info_measure_main_exp,2022.2.2,Win32,60.09976561,,,,,,,,,,,,,,,,,,,,,,,,,,,,,,7,2.3667,1,,,,,,,,,,,,0,131,5,5,2142,2154,absent_patch/patch0002142.jpg,absent_patch/patch0002154.jpg,,,,,,,,,,,,,,,,,,,,0.053126346,0.076655879,1,0,0,response1disk,15,0.0012505,0.006252932,1,0,0,center_square,0,14,14,9,1,,,,,,,,,,,,,,,,,,,,,,,
995526,001,2022-11-20_18h49.57.938,Info_measure_main_exp,2022.2.2,Win32,60.09976561,,,,,,,,,,,,,,,,,,masks/mask_001.jpg,,,,,,,,,,,,,,,,,,,,,,,,,,,,,,,,,,,,,,,,,,,0,0,0,0,1,,,,,,,,,,,,,,,,,,,,,,,,,,,,,,,,,,,,,,,,,,,,,,
995526,001,2022-11-20_18h49.57.938,Info_measure_main_exp,2022.2.2,Win32,60.09976561,,,,,,,,,,,,,,,,,,masks/mask_004.jpg,,,,,,,,,,,,,,,,,,,,,,,,,,,,,,,,,,,,,,,,,,,0,1,1,3,1,,,,,,,,,,,,,,,,,,,,,,,,,,,,,,,,,,,,,,,,,,,,,,
995526,001,2022-11-20_18h49.57.938,Info_measure_main_exp,2022.2.2,Win32,60.09976561,,,,,,,,,,,,,,,,,,masks/mask_002.jpg,,,,,,,,,,,,,,,,,,,,,,,,,,,,,,,,,,,,,,,,,,,0,2,2,1,1,,,,,,,,,,,,,,,,,,,,,,,,,,,,,,,,,,,,,,,,,,,,,,
995526,001,2022-11-20_18h49.57.938,Info_measure_main_exp,2022.2.2,Win32,60.09976561,,,,,,,,,,,,,,,,,,masks/mask_005.jpg,,,,,,,,,,,,,,,,,,,,,,,,,,,,,,,,,,,,,,,,,,,0,3,3,4,1,,,,,,,,,,,,,,,,,,,,,,,,,,,,,,,,,,,,,,,,,,,,,,
995526,001,2022-11-20_18h49.57.938,Info_measure_main_exp,2022.2.2,Win32,60.09976561,,,,,,,,,,,,,,,,,,masks/mask_003.jpg,,,,,,,,,,,,,,,,,,,,,,,,,,,,,,,,,,,,,,,,,,,0,4,4,2,1,,,,,,,,,,,,,,,,,,,,,,,,,,,,,,,,,,,,,,,,,,,,,,
995526,001,2022-11-20_18h49.57.938,Info_measure_main_exp,2022.2.2,Win32,60.09976561,,,,,,,,,,,,,,,,,,masks/mask_003.jpg,,,,,,,,,,,,,,,,,,,,,,,,,,,,,,,,,,,,,,,,,,,,,,,,0,0,0,2,1,,,,,,,,,,,,,,,,,,,,,,,,,,,,,,,,,,,,,,,,,
995526,001,2022-11-20_18h49.57.938,Info_measure_main_exp,2022.2.2,Win32,60.09976561,,,,,,,,,,,,,,,,,,masks/mask_002.jpg,,,,,,,,,,,,,,,,,,,,,,,,,,,,,,,,,,,,,,,,,,,,,,,,0,1,1,1,1,,,,,,,,,,,,,,,,,,,,,,,,,,,,,,,,,,,,,,,,,
995526,001,2022-11-20_18h49.57.938,Info_measure_main_exp,2022.2.2,Win32,60.09976561,,,,,,,,,,,,,,,,,,masks/mask_005.jpg,,,,,,,,,,,,,,,,,,,,,,,,,,,,,,,,,,,,,,,,,,,,,,,,0,2,2,4,1,,,,,,,,,,,,,,,,,,,,,,,,,,,,,,,,,,,,,,,,,
995526,001,2022-11-20_18h49.57.938,Info_measure_main_exp,2022.2.2,Win32,60.09976561,,,,,,,,,,,,,,,,,,masks/mask_001.jpg,,,,,,,,,,,,,,,,,,,,,,,,,,,,,,,,,,,,,,,,,,,,,,,,0,3,3,0,1,,,,,,,,,,,,,,,,,,,,,,,,,,,,,,,,,,,,,,,,,
995526,001,2022-11-20_18h49.57.938,Info_measure_main_exp,2022.2.2,Win32,60.09976561,,,,,,,,,,,,,,,,,,masks/mask_004.jpg,,,,,,,,,,,,,,,,,,,,,,,,,,,,,,,,,,,,,,,,,,,,,,,,0,4,4,3,1,,,,,,,,,,,,,,,,,,,,,,,,,,,,,,,,,,,,,,,,,
995526,001,2022-11-20_18h49.57.938,Info_measure_main_exp,2022.2.2,Win32,60.09976561,,,,,,,,,,,,,,,,,,,,,,,,,,,,,,7,0.9837,1,,,,,,,,,,,,1,131,5,5,2298,1,absent_patch/patch0002298.jpg,present_patch/cong_131_5_a.jpg,,,,,,,,,,,,,,,,,,,,0.046641913,0.078508608,1,0,0,response1disk,16,0.000324207,0.001621132,1,0,0,center_square,0,15,15,45,1,,,,,,,,,,,,,,,,,,,,,,,
995526,001,2022-11-20_18h49.57.938,Info_measure_main_exp,2022.2.2,Win32,60.09976561,,,,,,,,,,,,,,,,,,masks/mask_005.jpg,,,,,,,,,,,,,,,,,,,,,,,,,,,,,,,,,,,,,,,,,,,0,0,0,4,1,,,,,,,,,,,,,,,,,,,,,,,,,,,,,,,,,,,,,,,,,,,,,,
995526,001,2022-11-20_18h49.57.938,Info_measure_main_exp,2022.2.2,Win32,60.09976561,,,,,,,,,,,,,,,,,,masks/mask_004.jpg,,,,,,,,,,,,,,,,,,,,,,,,,,,,,,,,,,,,,,,,,,,0,1,1,3,1,,,,,,,,,,,,,,,,,,,,,,,,,,,,,,,,,,,,,,,,,,,,,,
995526,001,2022-11-20_18h49.57.938,Info_measure_main_exp,2022.2.2,Win32,60.09976561,,,,,,,,,,,,,,,,,,masks/mask_002.jpg,,,,,,,,,,,,,,,,,,,,,,,,,,,,,,,,,,,,,,,,,,,0,2,2,1,1,,,,,,,,,,,,,,,,,,,,,,,,,,,,,,,,,,,,,,,,,,,,,,
995526,001,2022-11-20_18h49.57.938,Info_measure_main_exp,2022.2.2,Win32,60.09976561,,,,,,,,,,,,,,,,,,masks/mask_003.jpg,,,,,,,,,,,,,,,,,,,,,,,,,,,,,,,,,,,,,,,,,,,0,3,3,2,1,,,,,,,,,,,,,,,,,,,,,,,,,,,,,,,,,,,,,,,,,,,,,,
995526,001,2022-11-20_18h49.57.938,Info_measure_main_exp,2022.2.2,Win32,60.09976561,,,,,,,,,,,,,,,,,,masks/mask_001.jpg,,,,,,,,,,,,,,,,,,,,,,,,,,,,,,,,,,,,,,,,,,,0,4,4,0,1,,,,,,,,,,,,,,,,,,,,,,,,,,,,,,,,,,,,,,,,,,,,,,
995526,001,2022-11-20_18h49.57.938,Info_measure_main_exp,2022.2.2,Win32,60.09976561,,,,,,,,,,,,,,,,,,masks/mask_003.jpg,,,,,,,,,,,,,,,,,,,,,,,,,,,,,,,,,,,,,,,,,,,,,,,,0,0,0,2,1,,,,,,,,,,,,,,,,,,,,,,,,,,,,,,,,,,,,,,,,,
995526,001,2022-11-20_18h49.57.938,Info_measure_main_exp,2022.2.2,Win32,60.09976561,,,,,,,,,,,,,,,,,,masks/mask_005.jpg,,,,,,,,,,,,,,,,,,,,,,,,,,,,,,,,,,,,,,,,,,,,,,,,0,1,1,4,1,,,,,,,,,,,,,,,,,,,,,,,,,,,,,,,,,,,,,,,,,
995526,001,2022-11-20_18h49.57.938,Info_measure_main_exp,2022.2.2,Win32,60.09976561,,,,,,,,,,,,,,,,,,masks/mask_002.jpg,,,,,,,,,,,,,,,,,,,,,,,,,,,,,,,,,,,,,,,,,,,,,,,,0,2,2,1,1,,,,,,,,,,,,,,,,,,,,,,,,,,,,,,,,,,,,,,,,,
995526,001,2022-11-20_18h49.57.938,Info_measure_main_exp,2022.2.2,Win32,60.09976561,,,,,,,,,,,,,,,,,,masks/mask_001.jpg,,,,,,,,,,,,,,,,,,,,,,,,,,,,,,,,,,,,,,,,,,,,,,,,0,3,3,0,1,,,,,,,,,,,,,,,,,,,,,,,,,,,,,,,,,,,,,,,,,
995526,001,2022-11-20_18h49.57.938,Info_measure_main_exp,2022.2.2,Win32,60.09976561,,,,,,,,,,,,,,,,,,masks/mask_004.jpg,,,,,,,,,,,,,,,,,,,,,,,,,,,,,,,,,,,,,,,,,,,,,,,,0,4,4,3,1,,,,,,,,,,,,,,,,,,,,,,,,,,,,,,,,,,,,,,,,,
995526,001,2022-11-20_18h49.57.938,Info_measure_main_exp,2022.2.2,Win32,60.09976561,,,,,,,,,,,,,,,,,,,,,,,,,,,,,,7,1.1667,1,,,,,,,,,,,,0,131,5,5,2190,1950,absent_patch/patch0002190.jpg,absent_patch/patch0001950.jpg,,,,,,,,,,,,,,,,,,,,0.036452022,0.079434949,1,0,0,response1disk,17,0.00958771,0.013663753,1,0,0,center_square,0,16,16,73,1,,,,,,,,,,,,,,,,,,,,,,,
995526,001,2022-11-20_18h49.57.938,Info_measure_main_exp,2022.2.2,Win32,60.09976561,,,,,,,,,,,,,,,,,,masks/mask_001.jpg,,,,,,,,,,,,,,,,,,,,,,,,,,,,,,,,,,,,,,,,,,,0,0,0,0,1,,,,,,,,,,,,,,,,,,,,,,,,,,,,,,,,,,,,,,,,,,,,,,
995526,001,2022-11-20_18h49.57.938,Info_measure_main_exp,2022.2.2,Win32,60.09976561,,,,,,,,,,,,,,,,,,masks/mask_005.jpg,,,,,,,,,,,,,,,,,,,,,,,,,,,,,,,,,,,,,,,,,,,0,1,1,4,1,,,,,,,,,,,,,,,,,,,,,,,,,,,,,,,,,,,,,,,,,,,,,,
995526,001,2022-11-20_18h49.57.938,Info_measure_main_exp,2022.2.2,Win32,60.09976561,,,,,,,,,,,,,,,,,,masks/mask_003.jpg,,,,,,,,,,,,,,,,,,,,,,,,,,,,,,,,,,,,,,,,,,,0,2,2,2,1,,,,,,,,,,,,,,,,,,,,,,,,,,,,,,,,,,,,,,,,,,,,,,
995526,001,2022-11-20_18h49.57.938,Info_measure_main_exp,2022.2.2,Win32,60.09976561,,,,,,,,,,,,,,,,,,masks/mask_002.jpg,,,,,,,,,,,,,,,,,,,,,,,,,,,,,,,,,,,,,,,,,,,0,3,3,1,1,,,,,,,,,,,,,,,,,,,,,,,,,,,,,,,,,,,,,,,,,,,,,,
995526,001,2022-11-20_18h49.57.938,Info_measure_main_exp,2022.2.2,Win32,60.09976561,,,,,,,,,,,,,,,,,,masks/mask_004.jpg,,,,,,,,,,,,,,,,,,,,,,,,,,,,,,,,,,,,,,,,,,,0,4,4,3,1,,,,,,,,,,,,,,,,,,,,,,,,,,,,,,,,,,,,,,,,,,,,,,
995526,001,2022-11-20_18h49.57.938,Info_measure_main_exp,2022.2.2,Win32,60.09976561,,,,,,,,,,,,,,,,,,masks/mask_001.jpg,,,,,,,,,,,,,,,,,,,,,,,,,,,,,,,,,,,,,,,,,,,,,,,,0,0,0,0,1,,,,,,,,,,,,,,,,,,,,,,,,,,,,,,,,,,,,,,,,,
995526,001,2022-11-20_18h49.57.938,Info_measure_main_exp,2022.2.2,Win32,60.09976561,,,,,,,,,,,,,,,,,,masks/mask_004.jpg,,,,,,,,,,,,,,,,,,,,,,,,,,,,,,,,,,,,,,,,,,,,,,,,0,1,1,3,1,,,,,,,,,,,,,,,,,,,,,,,,,,,,,,,,,,,,,,,,,
995526,001,2022-11-20_18h49.57.938,Info_measure_main_exp,2022.2.2,Win32,60.09976561,,,,,,,,,,,,,,,,,,masks/mask_005.jpg,,,,,,,,,,,,,,,,,,,,,,,,,,,,,,,,,,,,,,,,,,,,,,,,0,2,2,4,1,,,,,,,,,,,,,,,,,,,,,,,,,,,,,,,,,,,,,,,,,
995526,001,2022-11-20_18h49.57.938,Info_measure_main_exp,2022.2.2,Win32,60.09976561,,,,,,,,,,,,,,,,,,masks/mask_002.jpg,,,,,,,,,,,,,,,,,,,,,,,,,,,,,,,,,,,,,,,,,,,,,,,,0,3,3,1,1,,,,,,,,,,,,,,,,,,,,,,,,,,,,,,,,,,,,,,,,,
995526,001,2022-11-20_18h49.57.938,Info_measure_main_exp,2022.2.2,Win32,60.09976561,,,,,,,,,,,,,,,,,,masks/mask_003.jpg,,,,,,,,,,,,,,,,,,,,,,,,,,,,,,,,,,,,,,,,,,,,,,,,0,4,4,2,1,,,,,,,,,,,,,,,,,,,,,,,,,,,,,,,,,,,,,,,,,
995526,001,2022-11-20_18h49.57.938,Info_measure_main_exp,2022.2.2,Win32,60.09976561,,,,,,,,,,,,,,,,,,,,,,,,,,,,,,3,1.4663,1,,,,,,,,,,,,1,131,5,5,1,2154,present_patch/cong_131_5_a.jpg,absent_patch/patch0002154.jpg,,,,,,,,,,,,,,,,,,,,-0.029319174,-0.111394062,1,0,0,response5disk,18,0.008661321,-0.00671603,1,0,0,center_square,0,17,17,87,1,,,,,,,,,,,,,,,,,,,,,,,
995526,001,2022-11-20_18h49.57.938,Info_measure_main_exp,2022.2.2,Win32,60.09976561,,,,,,,,,,,,,,,,,,masks/mask_001.jpg,,,,,,,,,,,,,,,,,,,,,,,,,,,,,,,,,,,,,,,,,,,0,0,0,0,1,,,,,,,,,,,,,,,,,,,,,,,,,,,,,,,,,,,,,,,,,,,,,,
995526,001,2022-11-20_18h49.57.938,Info_measure_main_exp,2022.2.2,Win32,60.09976561,,,,,,,,,,,,,,,,,,masks/mask_005.jpg,,,,,,,,,,,,,,,,,,,,,,,,,,,,,,,,,,,,,,,,,,,0,1,1,4,1,,,,,,,,,,,,,,,,,,,,,,,,,,,,,,,,,,,,,,,,,,,,,,
995526,001,2022-11-20_18h49.57.938,Info_measure_main_exp,2022.2.2,Win32,60.09976561,,,,,,,,,,,,,,,,,,masks/mask_002.jpg,,,,,,,,,,,,,,,,,,,,,,,,,,,,,,,,,,,,,,,,,,,0,2,2,1,1,,,,,,,,,,,,,,,,,,,,,,,,,,,,,,,,,,,,,,,,,,,,,,
995526,001,2022-11-20_18h49.57.938,Info_measure_main_exp,2022.2.2,Win32,60.09976561,,,,,,,,,,,,,,,,,,masks/mask_004.jpg,,,,,,,,,,,,,,,,,,,,,,,,,,,,,,,,,,,,,,,,,,,0,3,3,3,1,,,,,,,,,,,,,,,,,,,,,,,,,,,,,,,,,,,,,,,,,,,,,,
995526,001,2022-11-20_18h49.57.938,Info_measure_main_exp,2022.2.2,Win32,60.09976561,,,,,,,,,,,,,,,,,,masks/mask_003.jpg,,,,,,,,,,,,,,,,,,,,,,,,,,,,,,,,,,,,,,,,,,,0,4,4,2,1,,,,,,,,,,,,,,,,,,,,,,,,,,,,,,,,,,,,,,,,,,,,,,
995526,001,2022-11-20_18h49.57.938,Info_measure_main_exp,2022.2.2,Win32,60.09976561,,,,,,,,,,,,,,,,,,masks/mask_004.jpg,,,,,,,,,,,,,,,,,,,,,,,,,,,,,,,,,,,,,,,,,,,,,,,,0,0,0,3,1,,,,,,,,,,,,,,,,,,,,,,,,,,,,,,,,,,,,,,,,,
995526,001,2022-11-20_18h49.57.938,Info_measure_main_exp,2022.2.2,Win32,60.09976561,,,,,,,,,,,,,,,,,,masks/mask_001.jpg,,,,,,,,,,,,,,,,,,,,,,,,,,,,,,,,,,,,,,,,,,,,,,,,0,1,1,0,1,,,,,,,,,,,,,,,,,,,,,,,,,,,,,,,,,,,,,,,,,
995526,001,2022-11-20_18h49.57.938,Info_measure_main_exp,2022.2.2,Win32,60.09976561,,,,,,,,,,,,,,,,,,masks/mask_005.jpg,,,,,,,,,,,,,,,,,,,,,,,,,,,,,,,,,,,,,,,,,,,,,,,,0,2,2,4,1,,,,,,,,,,,,,,,,,,,,,,,,,,,,,,,,,,,,,,,,,
995526,001,2022-11-20_18h49.57.938,Info_measure_main_exp,2022.2.2,Win32,60.09976561,,,,,,,,,,,,,,,,,,masks/mask_003.jpg,,,,,,,,,,,,,,,,,,,,,,,,,,,,,,,,,,,,,,,,,,,,,,,,0,3,3,2,1,,,,,,,,,,,,,,,,,,,,,,,,,,,,,,,,,,,,,,,,,
995526,001,2022-11-20_18h49.57.938,Info_measure_main_exp,2022.2.2,Win32,60.09976561,,,,,,,,,,,,,,,,,,masks/mask_002.jpg,,,,,,,,,,,,,,,,,,,,,,,,,,,,,,,,,,,,,,,,,,,,,,,,0,4,4,1,1,,,,,,,,,,,,,,,,,,,,,,,,,,,,,,,,,,,,,,,,,
995526,001,2022-11-20_18h49.57.938,Info_measure_main_exp,2022.2.2,Win32,60.09976561,,,,,,,,,,,,,,,,,,,,,,,,,,,,,,0,0.7334,1,,,,,,,,,,,,0,131,5,5,2142,2142,absent_patch/patch0002142.jpg,absent_patch/patch0002142.jpg,,,,,,,,,,,,,,,,,,,,-0.023761034,0.088698548,1,0,0,response7disk,19,-0.003381348,0.015516482,1,0,0,center_square,0,18,18,13,1,,,,,,,,,,,,,,,,,,,,,,,
995526,001,2022-11-20_18h49.57.938,Info_measure_main_exp,2022.2.2,Win32,60.09976561,,,,,,,,,,,,,,,,,,masks/mask_003.jpg,,,,,,,,,,,,,,,,,,,,,,,,,,,,,,,,,,,,,,,,,,,0,0,0,2,1,,,,,,,,,,,,,,,,,,,,,,,,,,,,,,,,,,,,,,,,,,,,,,
995526,001,2022-11-20_18h49.57.938,Info_measure_main_exp,2022.2.2,Win32,60.09976561,,,,,,,,,,,,,,,,,,masks/mask_004.jpg,,,,,,,,,,,,,,,,,,,,,,,,,,,,,,,,,,,,,,,,,,,0,1,1,3,1,,,,,,,,,,,,,,,,,,,,,,,,,,,,,,,,,,,,,,,,,,,,,,
995526,001,2022-11-20_18h49.57.938,Info_measure_main_exp,2022.2.2,Win32,60.09976561,,,,,,,,,,,,,,,,,,masks/mask_002.jpg,,,,,,,,,,,,,,,,,,,,,,,,,,,,,,,,,,,,,,,,,,,0,2,2,1,1,,,,,,,,,,,,,,,,,,,,,,,,,,,,,,,,,,,,,,,,,,,,,,
995526,001,2022-11-20_18h49.57.938,Info_measure_main_exp,2022.2.2,Win32,60.09976561,,,,,,,,,,,,,,,,,,masks/mask_001.jpg,,,,,,,,,,,,,,,,,,,,,,,,,,,,,,,,,,,,,,,,,,,0,3,3,0,1,,,,,,,,,,,,,,,,,,,,,,,,,,,,,,,,,,,,,,,,,,,,,,
995526,001,2022-11-20_18h49.57.938,Info_measure_main_exp,2022.2.2,Win32,60.09976561,,,,,,,,,,,,,,,,,,masks/mask_005.jpg,,,,,,,,,,,,,,,,,,,,,,,,,,,,,,,,,,,,,,,,,,,0,4,4,4,1,,,,,,,,,,,,,,,,,,,,,,,,,,,,,,,,,,,,,,,,,,,,,,
995526,001,2022-11-20_18h49.57.938,Info_measure_main_exp,2022.2.2,Win32,60.09976561,,,,,,,,,,,,,,,,,,masks/mask_002.jpg,,,,,,,,,,,,,,,,,,,,,,,,,,,,,,,,,,,,,,,,,,,,,,,,0,0,0,1,1,,,,,,,,,,,,,,,,,,,,,,,,,,,,,,,,,,,,,,,,,
995526,001,2022-11-20_18h49.57.938,Info_measure_main_exp,2022.2.2,Win32,60.09976561,,,,,,,,,,,,,,,,,,masks/mask_003.jpg,,,,,,,,,,,,,,,,,,,,,,,,,,,,,,,,,,,,,,,,,,,,,,,,0,1,1,2,1,,,,,,,,,,,,,,,,,,,,,,,,,,,,,,,,,,,,,,,,,
995526,001,2022-11-20_18h49.57.938,Info_measure_main_exp,2022.2.2,Win32,60.09976561,,,,,,,,,,,,,,,,,,masks/mask_004.jpg,,,,,,,,,,,,,,,,,,,,,,,,,,,,,,,,,,,,,,,,,,,,,,,,0,2,2,3,1,,,,,,,,,,,,,,,,,,,,,,,,,,,,,,,,,,,,,,,,,
995526,001,2022-11-20_18h49.57.938,Info_measure_main_exp,2022.2.2,Win32,60.09976561,,,,,,,,,,,,,,,,,,masks/mask_005.jpg,,,,,,,,,,,,,,,,,,,,,,,,,,,,,,,,,,,,,,,,,,,,,,,,0,3,3,4,1,,,,,,,,,,,,,,,,,,,,,,,,,,,,,,,,,,,,,,,,,
995526,001,2022-11-20_18h49.57.938,Info_measure_main_exp,2022.2.2,Win32,60.09976561,,,,,,,,,,,,,,,,,,masks/mask_001.jpg,,,,,,,,,,,,,,,,,,,,,,,,,,,,,,,,,,,,,,,,,,,,,,,,0,4,4,0,1,,,,,,,,,,,,,,,,,,,,,,,,,,,,,,,,,,,,,,,,,
995526,001,2022-11-20_18h49.57.938,Info_measure_main_exp,2022.2.2,Win32,60.09976561,,,,,,,,,,,,,,,,,,,,,,,,,,,,,,7,0.8167,1,,,,,,,,,,,,1,131,5,5,1,2142,present_patch/cong_131_5_a.jpg,absent_patch/patch0002142.jpg,,,,,,,,,,,,,,,,,,,,0.02626213,0.075729538,1,0,0,response1disk,20,0.002176889,-0.0094951,1,0,0,center_square,0,19,19,80,1,,,,,,,,,,,,,,,,,,,,,,,
995526,001,2022-11-20_18h49.57.938,Info_measure_main_exp,2022.2.2,Win32,60.09976561,,,,,,,,,,,,,,,,,,masks/mask_004.jpg,,,,,,,,,,,,,,,,,,,,,,,,,,,,,,,,,,,,,,,,,,,0,0,0,3,1,,,,,,,,,,,,,,,,,,,,,,,,,,,,,,,,,,,,,,,,,,,,,,
995526,001,2022-11-20_18h49.57.938,Info_measure_main_exp,2022.2.2,Win32,60.09976561,,,,,,,,,,,,,,,,,,masks/mask_002.jpg,,,,,,,,,,,,,,,,,,,,,,,,,,,,,,,,,,,,,,,,,,,0,1,1,1,1,,,,,,,,,,,,,,,,,,,,,,,,,,,,,,,,,,,,,,,,,,,,,,
995526,001,2022-11-20_18h49.57.938,Info_measure_main_exp,2022.2.2,Win32,60.09976561,,,,,,,,,,,,,,,,,,masks/mask_003.jpg,,,,,,,,,,,,,,,,,,,,,,,,,,,,,,,,,,,,,,,,,,,0,2,2,2,1,,,,,,,,,,,,,,,,,,,,,,,,,,,,,,,,,,,,,,,,,,,,,,
995526,001,2022-11-20_18h49.57.938,Info_measure_main_exp,2022.2.2,Win32,60.09976561,,,,,,,,,,,,,,,,,,masks/mask_001.jpg,,,,,,,,,,,,,,,,,,,,,,,,,,,,,,,,,,,,,,,,,,,0,3,3,0,1,,,,,,,,,,,,,,,,,,,,,,,,,,,,,,,,,,,,,,,,,,,,,,
995526,001,2022-11-20_18h49.57.938,Info_measure_main_exp,2022.2.2,Win32,60.09976561,,,,,,,,,,,,,,,,,,masks/mask_005.jpg,,,,,,,,,,,,,,,,,,,,,,,,,,,,,,,,,,,,,,,,,,,0,4,4,4,1,,,,,,,,,,,,,,,,,,,,,,,,,,,,,,,,,,,,,,,,,,,,,,
995526,001,2022-11-20_18h49.57.938,Info_measure_main_exp,2022.2.2,Win32,60.09976561,,,,,,,,,,,,,,,,,,masks/mask_002.jpg,,,,,,,,,,,,,,,,,,,,,,,,,,,,,,,,,,,,,,,,,,,,,,,,0,0,0,1,1,,,,,,,,,,,,,,,,,,,,,,,,,,,,,,,,,,,,,,,,,
995526,001,2022-11-20_18h49.57.938,Info_measure_main_exp,2022.2.2,Win32,60.09976561,,,,,,,,,,,,,,,,,,masks/mask_003.jpg,,,,,,,,,,,,,,,,,,,,,,,,,,,,,,,,,,,,,,,,,,,,,,,,0,1,1,2,1,,,,,,,,,,,,,,,,,,,,,,,,,,,,,,,,,,,,,,,,,
995526,001,2022-11-20_18h49.57.938,Info_measure_main_exp,2022.2.2,Win32,60.09976561,,,,,,,,,,,,,,,,,,masks/mask_005.jpg,,,,,,,,,,,,,,,,,,,,,,,,,,,,,,,,,,,,,,,,,,,,,,,,0,2,2,4,1,,,,,,,,,,,,,,,,,,,,,,,,,,,,,,,,,,,,,,,,,
995526,001,2022-11-20_18h49.57.938,Info_measure_main_exp,2022.2.2,Win32,60.09976561,,,,,,,,,,,,,,,,,,masks/mask_004.jpg,,,,,,,,,,,,,,,,,,,,,,,,,,,,,,,,,,,,,,,,,,,,,,,,0,3,3,3,1,,,,,,,,,,,,,,,,,,,,,,,,,,,,,,,,,,,,,,,,,
995526,001,2022-11-20_18h49.57.938,Info_measure_main_exp,2022.2.2,Win32,60.09976561,,,,,,,,,,,,,,,,,,masks/mask_001.jpg,,,,,,,,,,,,,,,,,,,,,,,,,,,,,,,,,,,,,,,,,,,,,,,,0,4,4,0,1,,,,,,,,,,,,,,,,,,,,,,,,,,,,,,,,,,,,,,,,,
995526,001,2022-11-20_18h49.57.938,Info_measure_main_exp,2022.2.2,Win32,60.09976561,,,,,,,,,,,,,,,,,,,,,,,,,,,,,,6,1.7668,1,,,,,,,,,,,,0,131,5,5,2298,2178,absent_patch/patch0002298.jpg,absent_patch/patch0002178.jpg,,,,,,,,,,,,,,,,,,,,0.066095403,0.047938886,1,0,0,response1disk,21,0.0012505,0.015516482,1,0,0,center_square,0,20,20,84,1,,,,,,,,,,,,,,,,,,,,,,,
995526,001,2022-11-20_18h49.57.938,Info_measure_main_exp,2022.2.2,Win32,60.09976561,,,,,,,,,,,,,,,,,,masks/mask_003.jpg,,,,,,,,,,,,,,,,,,,,,,,,,,,,,,,,,,,,,,,,,,,0,0,0,2,1,,,,,,,,,,,,,,,,,,,,,,,,,,,,,,,,,,,,,,,,,,,,,,
995526,001,2022-11-20_18h49.57.938,Info_measure_main_exp,2022.2.2,Win32,60.09976561,,,,,,,,,,,,,,,,,,masks/mask_005.jpg,,,,,,,,,,,,,,,,,,,,,,,,,,,,,,,,,,,,,,,,,,,0,1,1,4,1,,,,,,,,,,,,,,,,,,,,,,,,,,,,,,,,,,,,,,,,,,,,,,
995526,001,2022-11-20_18h49.57.938,Info_measure_main_exp,2022.2.2,Win32,60.09976561,,,,,,,,,,,,,,,,,,masks/mask_004.jpg,,,,,,,,,,,,,,,,,,,,,,,,,,,,,,,,,,,,,,,,,,,0,2,2,3,1,,,,,,,,,,,,,,,,,,,,,,,,,,,,,,,,,,,,,,,,,,,,,,
995526,001,2022-11-20_18h49.57.938,Info_measure_main_exp,2022.2.2,Win32,60.09976561,,,,,,,,,,,,,,,,,,masks/mask_002.jpg,,,,,,,,,,,,,,,,,,,,,,,,,,,,,,,,,,,,,,,,,,,0,3,3,1,1,,,,,,,,,,,,,,,,,,,,,,,,,,,,,,,,,,,,,,,,,,,,,,
995526,001,2022-11-20_18h49.57.938,Info_measure_main_exp,2022.2.2,Win32,60.09976561,,,,,,,,,,,,,,,,,,masks/mask_001.jpg,,,,,,,,,,,,,,,,,,,,,,,,,,,,,,,,,,,,,,,,,,,0,4,4,0,1,,,,,,,,,,,,,,,,,,,,,,,,,,,,,,,,,,,,,,,,,,,,,,
995526,001,2022-11-20_18h49.57.938,Info_measure_main_exp,2022.2.2,Win32,60.09976561,,,,,,,,,,,,,,,,,,masks/mask_005.jpg,,,,,,,,,,,,,,,,,,,,,,,,,,,,,,,,,,,,,,,,,,,,,,,,0,0,0,4,1,,,,,,,,,,,,,,,,,,,,,,,,,,,,,,,,,,,,,,,,,
995526,001,2022-11-20_18h49.57.938,Info_measure_main_exp,2022.2.2,Win32,60.09976561,,,,,,,,,,,,,,,,,,masks/mask_002.jpg,,,,,,,,,,,,,,,,,,,,,,,,,,,,,,,,,,,,,,,,,,,,,,,,0,1,1,1,1,,,,,,,,,,,,,,,,,,,,,,,,,,,,,,,,,,,,,,,,,
995526,001,2022-11-20_18h49.57.938,Info_measure_main_exp,2022.2.2,Win32,60.09976561,,,,,,,,,,,,,,,,,,masks/mask_003.jpg,,,,,,,,,,,,,,,,,,,,,,,,,,,,,,,,,,,,,,,,,,,,,,,,0,2,2,2,1,,,,,,,,,,,,,,,,,,,,,,,,,,,,,,,,,,,,,,,,,
995526,001,2022-11-20_18h49.57.938,Info_measure_main_exp,2022.2.2,Win32,60.09976561,,,,,,,,,,,,,,,,,,masks/mask_004.jpg,,,,,,,,,,,,,,,,,,,,,,,,,,,,,,,,,,,,,,,,,,,,,,,,0,3,3,3,1,,,,,,,,,,,,,,,,,,,,,,,,,,,,,,,,,,,,,,,,,
995526,001,2022-11-20_18h49.57.938,Info_measure_main_exp,2022.2.2,Win32,60.09976561,,,,,,,,,,,,,,,,,,masks/mask_001.jpg,,,,,,,,,,,,,,,,,,,,,,,,,,,,,,,,,,,,,,,,,,,,,,,,0,4,4,0,1,,,,,,,,,,,,,,,,,,,,,,,,,,,,,,,,,,,,,,,,,
995526,001,2022-11-20_18h49.57.938,Info_measure_main_exp,2022.2.2,Win32,60.09976561,,,,,,,,,,,,,,,,,,,,,,,,,,,,,,0,0.5834,1,,,,,,,,,,,,0,131,5,5,2274,2274,absent_patch/patch0002274.jpg,absent_patch/patch0002274.jpg,,,,,,,,,,,,,,,,,,,,-0.023761034,0.059055166,1,0,0,response7disk,22,-0.003381348,-0.008568759,1,0,0,center_square,0,21,21,114,1,,,,,,,,,,,,,,,,,,,,,,,
995526,001,2022-11-20_18h49.57.938,Info_measure_main_exp,2022.2.2,Win32,60.09976561,,,,,,,,,,,,,,,,,,masks/mask_001.jpg,,,,,,,,,,,,,,,,,,,,,,,,,,,,,,,,,,,,,,,,,,,0,0,0,0,1,,,,,,,,,,,,,,,,,,,,,,,,,,,,,,,,,,,,,,,,,,,,,,
995526,001,2022-11-20_18h49.57.938,Info_measure_main_exp,2022.2.2,Win32,60.09976561,,,,,,,,,,,,,,,,,,masks/mask_002.jpg,,,,,,,,,,,,,,,,,,,,,,,,,,,,,,,,,,,,,,,,,,,0,1,1,1,1,,,,,,,,,,,,,,,,,,,,,,,,,,,,,,,,,,,,,,,,,,,,,,
995526,001,2022-11-20_18h49.57.938,Info_measure_main_exp,2022.2.2,Win32,60.09976561,,,,,,,,,,,,,,,,,,masks/mask_005.jpg,,,,,,,,,,,,,,,,,,,,,,,,,,,,,,,,,,,,,,,,,,,0,2,2,4,1,,,,,,,,,,,,,,,,,,,,,,,,,,,,,,,,,,,,,,,,,,,,,,
995526,001,2022-11-20_18h49.57.938,Info_measure_main_exp,2022.2.2,Win32,60.09976561,,,,,,,,,,,,,,,,,,masks/mask_003.jpg,,,,,,,,,,,,,,,,,,,,,,,,,,,,,,,,,,,,,,,,,,,0,3,3,2,1,,,,,,,,,,,,,,,,,,,,,,,,,,,,,,,,,,,,,,,,,,,,,,
995526,001,2022-11-20_18h49.57.938,Info_measure_main_exp,2022.2.2,Win32,60.09976561,,,,,,,,,,,,,,,,,,masks/mask_004.jpg,,,,,,,,,,,,,,,,,,,,,,,,,,,,,,,,,,,,,,,,,,,0,4,4,3,1,,,,,,,,,,,,,,,,,,,,,,,,,,,,,,,,,,,,,,,,,,,,,,
995526,001,2022-11-20_18h49.57.938,Info_measure_main_exp,2022.2.2,Win32,60.09976561,,,,,,,,,,,,,,,,,,masks/mask_005.jpg,,,,,,,,,,,,,,,,,,,,,,,,,,,,,,,,,,,,,,,,,,,,,,,,0,0,0,4,1,,,,,,,,,,,,,,,,,,,,,,,,,,,,,,,,,,,,,,,,,
995526,001,2022-11-20_18h49.57.938,Info_measure_main_exp,2022.2.2,Win32,60.09976561,,,,,,,,,,,,,,,,,,masks/mask_001.jpg,,,,,,,,,,,,,,,,,,,,,,,,,,,,,,,,,,,,,,,,,,,,,,,,0,1,1,0,1,,,,,,,,,,,,,,,,,,,,,,,,,,,,,,,,,,,,,,,,,
995526,001,2022-11-20_18h49.57.938,Info_measure_main_exp,2022.2.2,Win32,60.09976561,,,,,,,,,,,,,,,,,,masks/mask_004.jpg,,,,,,,,,,,,,,,,,,,,,,,,,,,,,,,,,,,,,,,,,,,,,,,,0,2,2,3,1,,,,,,,,,,,,,,,,,,,,,,,,,,,,,,,,,,,,,,,,,
995526,001,2022-11-20_18h49.57.938,Info_measure_main_exp,2022.2.2,Win32,60.09976561,,,,,,,,,,,,,,,,,,masks/mask_003.jpg,,,,,,,,,,,,,,,,,,,,,,,,,,,,,,,,,,,,,,,,,,,,,,,,0,3,3,2,1,,,,,,,,,,,,,,,,,,,,,,,,,,,,,,,,,,,,,,,,,
995526,001,2022-11-20_18h49.57.938,Info_measure_main_exp,2022.2.2,Win32,60.09976561,,,,,,,,,,,,,,,,,,masks/mask_002.jpg,,,,,,,,,,,,,,,,,,,,,,,,,,,,,,,,,,,,,,,,,,,,,,,,0,4,4,1,1,,,,,,,,,,,,,,,,,,,,,,,,,,,,,,,,,,,,,,,,,
995526,001,2022-11-20_18h49.57.938,Info_measure_main_exp,2022.2.2,Win32,60.09976561,,,,,,,,,,,,,,,,,,,,,,,,,,,,,,6,1.3166,1,,,,,,,,,,,,0,131,5,5,2274,2190,absent_patch/patch0002274.jpg,absent_patch/patch0002190.jpg,,,,,,,,,,,,,,,,,,,,0.121676516,0.020148234,1,0,0,response1disk,23,0.00680864,-0.003010619,1,0,0,center_square,0,22,22,116,1,,,,,,,,,,,,,,,,,,,,,,,
995526,001,2022-11-20_18h49.57.938,Info_measure_main_exp,2022.2.2,Win32,60.09976561,,,,,,,,,,,,,,,,,,masks/mask_004.jpg,,,,,,,,,,,,,,,,,,,,,,,,,,,,,,,,,,,,,,,,,,,0,0,0,3,1,,,,,,,,,,,,,,,,,,,,,,,,,,,,,,,,,,,,,,,,,,,,,,
995526,001,2022-11-20_18h49.57.938,Info_measure_main_exp,2022.2.2,Win32,60.09976561,,,,,,,,,,,,,,,,,,masks/mask_001.jpg,,,,,,,,,,,,,,,,,,,,,,,,,,,,,,,,,,,,,,,,,,,0,1,1,0,1,,,,,,,,,,,,,,,,,,,,,,,,,,,,,,,,,,,,,,,,,,,,,,
995526,001,2022-11-20_18h49.57.938,Info_measure_main_exp,2022.2.2,Win32,60.09976561,,,,,,,,,,,,,,,,,,masks/mask_005.jpg,,,,,,,,,,,,,,,,,,,,,,,,,,,,,,,,,,,,,,,,,,,0,2,2,4,1,,,,,,,,,,,,,,,,,,,,,,,,,,,,,,,,,,,,,,,,,,,,,,
995526,001,2022-11-20_18h49.57.938,Info_measure_main_exp,2022.2.2,Win32,60.09976561,,,,,,,,,,,,,,,,,,masks/mask_003.jpg,,,,,,,,,,,,,,,,,,,,,,,,,,,,,,,,,,,,,,,,,,,0,3,3,2,1,,,,,,,,,,,,,,,,,,,,,,,,,,,,,,,,,,,,,,,,,,,,,,
995526,001,2022-11-20_18h49.57.938,Info_measure_main_exp,2022.2.2,Win32,60.09976561,,,,,,,,,,,,,,,,,,masks/mask_002.jpg,,,,,,,,,,,,,,,,,,,,,,,,,,,,,,,,,,,,,,,,,,,0,4,4,1,1,,,,,,,,,,,,,,,,,,,,,,,,,,,,,,,,,,,,,,,,,,,,,,
995526,001,2022-11-20_18h49.57.938,Info_measure_main_exp,2022.2.2,Win32,60.09976561,,,,,,,,,,,,,,,,,,masks/mask_005.jpg,,,,,,,,,,,,,,,,,,,,,,,,,,,,,,,,,,,,,,,,,,,,,,,,0,0,0,4,1,,,,,,,,,,,,,,,,,,,,,,,,,,,,,,,,,,,,,,,,,
995526,001,2022-11-20_18h49.57.938,Info_measure_main_exp,2022.2.2,Win32,60.09976561,,,,,,,,,,,,,,,,,,masks/mask_003.jpg,,,,,,,,,,,,,,,,,,,,,,,,,,,,,,,,,,,,,,,,,,,,,,,,0,1,1,2,1,,,,,,,,,,,,,,,,,,,,,,,,,,,,,,,,,,,,,,,,,
995526,001,2022-11-20_18h49.57.938,Info_measure_main_exp,2022.2.2,Win32,60.09976561,,,,,,,,,,,,,,,,,,masks/mask_002.jpg,,,,,,,,,,,,,,,,,,,,,,,,,,,,,,,,,,,,,,,,,,,,,,,,0,2,2,1,1,,,,,,,,,,,,,,,,,,,,,,,,,,,,,,,,,,,,,,,,,
995526,001,2022-11-20_18h49.57.938,Info_measure_main_exp,2022.2.2,Win32,60.09976561,,,,,,,,,,,,,,,,,,masks/mask_004.jpg,,,,,,,,,,,,,,,,,,,,,,,,,,,,,,,,,,,,,,,,,,,,,,,,0,3,3,3,1,,,,,,,,,,,,,,,,,,,,,,,,,,,,,,,,,,,,,,,,,
995526,001,2022-11-20_18h49.57.938,Info_measure_main_exp,2022.2.2,Win32,60.09976561,,,,,,,,,,,,,,,,,,masks/mask_001.jpg,,,,,,,,,,,,,,,,,,,,,,,,,,,,,,,,,,,,,,,,,,,,,,,,0,4,4,0,1,,,,,,,,,,,,,,,,,,,,,,,,,,,,,,,,,,,,,,,,,
995526,001,2022-11-20_18h49.57.938,Info_measure_main_exp,2022.2.2,Win32,60.09976561,,,,,,,,,,,,,,,,,,,,,,,,,,,,,,4,0.75,1,,,,,,,,,,,,1,131,5,5,1,1986,present_patch/cong_131_5_a.jpg,absent_patch/patch0001986.jpg,,,,,,,,,,,,,,,,,,,,0.018851309,-0.075266296,1,0,0,response3disk,24,0.005882347,0.002547569,1,0,0,center_square,0,23,23,106,1,,,,,,,,,,,,,,,,,,,,,,,
995526,001,2022-11-20_18h49.57.938,Info_measure_main_exp,2022.2.2,Win32,60.09976561,,,,,,,,,,,,,,,,,,masks/mask_003.jpg,,,,,,,,,,,,,,,,,,,,,,,,,,,,,,,,,,,,,,,,,,,0,0,0,2,1,,,,,,,,,,,,,,,,,,,,,,,,,,,,,,,,,,,,,,,,,,,,,,
995526,001,2022-11-20_18h49.57.938,Info_measure_main_exp,2022.2.2,Win32,60.09976561,,,,,,,,,,,,,,,,,,masks/mask_004.jpg,,,,,,,,,,,,,,,,,,,,,,,,,,,,,,,,,,,,,,,,,,,0,1,1,3,1,,,,,,,,,,,,,,,,,,,,,,,,,,,,,,,,,,,,,,,,,,,,,,
995526,001,2022-11-20_18h49.57.938,Info_measure_main_exp,2022.2.2,Win32,60.09976561,,,,,,,,,,,,,,,,,,masks/mask_001.jpg,,,,,,,,,,,,,,,,,,,,,,,,,,,,,,,,,,,,,,,,,,,0,2,2,0,1,,,,,,,,,,,,,,,,,,,,,,,,,,,,,,,,,,,,,,,,,,,,,,
995526,001,2022-11-20_18h49.57.938,Info_measure_main_exp,2022.2.2,Win32,60.09976561,,,,,,,,,,,,,,,,,,masks/mask_002.jpg,,,,,,,,,,,,,,,,,,,,,,,,,,,,,,,,,,,,,,,,,,,0,3,3,1,1,,,,,,,,,,,,,,,,,,,,,,,,,,,,,,,,,,,,,,,,,,,,,,
995526,001,2022-11-20_18h49.57.938,Info_measure_main_exp,2022.2.2,Win32,60.09976561,,,,,,,,,,,,,,,,,,masks/mask_005.jpg,,,,,,,,,,,,,,,,,,,,,,,,,,,,,,,,,,,,,,,,,,,0,4,4,4,1,,,,,,,,,,,,,,,,,,,,,,,,,,,,,,,,,,,,,,,,,,,,,,
995526,001,2022-11-20_18h49.57.938,Info_measure_main_exp,2022.2.2,Win32,60.09976561,,,,,,,,,,,,,,,,,,masks/mask_002.jpg,,,,,,,,,,,,,,,,,,,,,,,,,,,,,,,,,,,,,,,,,,,,,,,,0,0,0,1,1,,,,,,,,,,,,,,,,,,,,,,,,,,,,,,,,,,,,,,,,,
995526,001,2022-11-20_18h49.57.938,Info_measure_main_exp,2022.2.2,Win32,60.09976561,,,,,,,,,,,,,,,,,,masks/mask_001.jpg,,,,,,,,,,,,,,,,,,,,,,,,,,,,,,,,,,,,,,,,,,,,,,,,0,1,1,0,1,,,,,,,,,,,,,,,,,,,,,,,,,,,,,,,,,,,,,,,,,
995526,001,2022-11-20_18h49.57.938,Info_measure_main_exp,2022.2.2,Win32,60.09976561,,,,,,,,,,,,,,,,,,masks/mask_003.jpg,,,,,,,,,,,,,,,,,,,,,,,,,,,,,,,,,,,,,,,,,,,,,,,,0,2,2,2,1,,,,,,,,,,,,,,,,,,,,,,,,,,,,,,,,,,,,,,,,,
995526,001,2022-11-20_18h49.57.938,Info_measure_main_exp,2022.2.2,Win32,60.09976561,,,,,,,,,,,,,,,,,,masks/mask_005.jpg,,,,,,,,,,,,,,,,,,,,,,,,,,,,,,,,,,,,,,,,,,,,,,,,0,3,3,4,1,,,,,,,,,,,,,,,,,,,,,,,,,,,,,,,,,,,,,,,,,
995526,001,2022-11-20_18h49.57.938,Info_measure_main_exp,2022.2.2,Win32,60.09976561,,,,,,,,,,,,,,,,,,masks/mask_004.jpg,,,,,,,,,,,,,,,,,,,,,,,,,,,,,,,,,,,,,,,,,,,,,,,,0,4,4,3,1,,,,,,,,,,,,,,,,,,,,,,,,,,,,,,,,,,,,,,,,,
995526,001,2022-11-20_18h49.57.938,Info_measure_main_exp,2022.2.2,Win32,60.09976561,,,,,,,,,,,,,,,,,,,,,,,,,,,,,,6,2.4667,1,,,,,,,,,,,,0,131,5,5,2082,2298,absent_patch/patch0002082.jpg,absent_patch/patch0002298.jpg,,,,,,,,,,,,,,,,,,,,0.113339305,0.034043584,1,0,0,response1disk,25,0.007735029,-0.005789689,1,0,0,center_square,0,24,24,107,1,,,,,,,,,,,,,,,,,,,,,,,
995526,001,2022-11-20_18h49.57.938,Info_measure_main_exp,2022.2.2,Win32,60.09976561,,,,,,,,,,,,,,,,,,masks/mask_003.jpg,,,,,,,,,,,,,,,,,,,,,,,,,,,,,,,,,,,,,,,,,,,0,0,0,2,1,,,,,,,,,,,,,,,,,,,,,,,,,,,,,,,,,,,,,,,,,,,,,,
995526,001,2022-11-20_18h49.57.938,Info_measure_main_exp,2022.2.2,Win32,60.09976561,,,,,,,,,,,,,,,,,,masks/mask_002.jpg,,,,,,,,,,,,,,,,,,,,,,,,,,,,,,,,,,,,,,,,,,,0,1,1,1,1,,,,,,,,,,,,,,,,,,,,,,,,,,,,,,,,,,,,,,,,,,,,,,
995526,001,2022-11-20_18h49.57.938,Info_measure_main_exp,2022.2.2,Win32,60.09976561,,,,,,,,,,,,,,,,,,masks/mask_005.jpg,,,,,,,,,,,,,,,,,,,,,,,,,,,,,,,,,,,,,,,,,,,0,2,2,4,1,,,,,,,,,,,,,,,,,,,,,,,,,,,,,,,,,,,,,,,,,,,,,,
995526,001,2022-11-20_18h49.57.938,Info_measure_main_exp,2022.2.2,Win32,60.09976561,,,,,,,,,,,,,,,,,,masks/mask_001.jpg,,,,,,,,,,,,,,,,,,,,,,,,,,,,,,,,,,,,,,,,,,,0,3,3,0,1,,,,,,,,,,,,,,,,,,,,,,,,,,,,,,,,,,,,,,,,,,,,,,
995526,001,2022-11-20_18h49.57.938,Info_measure_main_exp,2022.2.2,Win32,60.09976561,,,,,,,,,,,,,,,,,,masks/mask_004.jpg,,,,,,,,,,,,,,,,,,,,,,,,,,,,,,,,,,,,,,,,,,,0,4,4,3,1,,,,,,,,,,,,,,,,,,,,,,,,,,,,,,,,,,,,,,,,,,,,,,
995526,001,2022-11-20_18h49.57.938,Info_measure_main_exp,2022.2.2,Win32,60.09976561,,,,,,,,,,,,,,,,,,masks/mask_001.jpg,,,,,,,,,,,,,,,,,,,,,,,,,,,,,,,,,,,,,,,,,,,,,,,,0,0,0,0,1,,,,,,,,,,,,,,,,,,,,,,,,,,,,,,,,,,,,,,,,,
995526,001,2022-11-20_18h49.57.938,Info_measure_main_exp,2022.2.2,Win32,60.09976561,,,,,,,,,,,,,,,,,,masks/mask_002.jpg,,,,,,,,,,,,,,,,,,,,,,,,,,,,,,,,,,,,,,,,,,,,,,,,0,1,1,1,1,,,,,,,,,,,,,,,,,,,,,,,,,,,,,,,,,,,,,,,,,
995526,001,2022-11-20_18h49.57.938,Info_measure_main_exp,2022.2.2,Win32,60.09976561,,,,,,,,,,,,,,,,,,masks/mask_005.jpg,,,,,,,,,,,,,,,,,,,,,,,,,,,,,,,,,,,,,,,,,,,,,,,,0,2,2,4,1,,,,,,,,,,,,,,,,,,,,,,,,,,,,,,,,,,,,,,,,,
995526,001,2022-11-20_18h49.57.938,Info_measure_main_exp,2022.2.2,Win32,60.09976561,,,,,,,,,,,,,,,,,,masks/mask_003.jpg,,,,,,,,,,,,,,,,,,,,,,,,,,,,,,,,,,,,,,,,,,,,,,,,0,3,3,2,1,,,,,,,,,,,,,,,,,,,,,,,,,,,,,,,,,,,,,,,,,
995526,001,2022-11-20_18h49.57.938,Info_measure_main_exp,2022.2.2,Win32,60.09976561,,,,,,,,,,,,,,,,,,masks/mask_004.jpg,,,,,,,,,,,,,,,,,,,,,,,,,,,,,,,,,,,,,,,,,,,,,,,,0,4,4,3,1,,,,,,,,,,,,,,,,,,,,,,,,,,,,,,,,,,,,,,,,,
995526,001,2022-11-20_18h49.57.938,Info_measure_main_exp,2022.2.2,Win32,60.09976561,,,,,,,,,,,,,,,,,,,,,,,,,,,,,,7,0.5833,1,,,,,,,,,,,,0,131,5,5,2274,1950,absent_patch/patch0002274.jpg,absent_patch/patch0001950.jpg,,,,,,,,,,,,,,,,,,,,0.0290412,0.070171398,1,0,0,response1disk,26,0.00402957,0.00903205,1,0,0,center_square,0,25,25,10,1,,,,,,,,,,,,,,,,,,,,,,,
995526,001,2022-11-20_18h49.57.938,Info_measure_main_exp,2022.2.2,Win32,60.09976561,,,,,,,,,,,,,,,,,,masks/mask_001.jpg,,,,,,,,,,,,,,,,,,,,,,,,,,,,,,,,,,,,,,,,,,,0,0,0,0,1,,,,,,,,,,,,,,,,,,,,,,,,,,,,,,,,,,,,,,,,,,,,,,
995526,001,2022-11-20_18h49.57.938,Info_measure_main_exp,2022.2.2,Win32,60.09976561,,,,,,,,,,,,,,,,,,masks/mask_002.jpg,,,,,,,,,,,,,,,,,,,,,,,,,,,,,,,,,,,,,,,,,,,0,1,1,1,1,,,,,,,,,,,,,,,,,,,,,,,,,,,,,,,,,,,,,,,,,,,,,,
995526,001,2022-11-20_18h49.57.938,Info_measure_main_exp,2022.2.2,Win32,60.09976561,,,,,,,,,,,,,,,,,,masks/mask_005.jpg,,,,,,,,,,,,,,,,,,,,,,,,,,,,,,,,,,,,,,,,,,,0,2,2,4,1,,,,,,,,,,,,,,,,,,,,,,,,,,,,,,,,,,,,,,,,,,,,,,
995526,001,2022-11-20_18h49.57.938,Info_measure_main_exp,2022.2.2,Win32,60.09976561,,,,,,,,,,,,,,,,,,masks/mask_004.jpg,,,,,,,,,,,,,,,,,,,,,,,,,,,,,,,,,,,,,,,,,,,0,3,3,3,1,,,,,,,,,,,,,,,,,,,,,,,,,,,,,,,,,,,,,,,,,,,,,,
995526,001,2022-11-20_18h49.57.938,Info_measure_main_exp,2022.2.2,Win32,60.09976561,,,,,,,,,,,,,,,,,,masks/mask_003.jpg,,,,,,,,,,,,,,,,,,,,,,,,,,,,,,,,,,,,,,,,,,,0,4,4,2,1,,,,,,,,,,,,,,,,,,,,,,,,,,,,,,,,,,,,,,,,,,,,,,
995526,001,2022-11-20_18h49.57.938,Info_measure_main_exp,2022.2.2,Win32,60.09976561,,,,,,,,,,,,,,,,,,masks/mask_002.jpg,,,,,,,,,,,,,,,,,,,,,,,,,,,,,,,,,,,,,,,,,,,,,,,,0,0,0,1,1,,,,,,,,,,,,,,,,,,,,,,,,,,,,,,,,,,,,,,,,,
995526,001,2022-11-20_18h49.57.938,Info_measure_main_exp,2022.2.2,Win32,60.09976561,,,,,,,,,,,,,,,,,,masks/mask_004.jpg,,,,,,,,,,,,,,,,,,,,,,,,,,,,,,,,,,,,,,,,,,,,,,,,0,1,1,3,1,,,,,,,,,,,,,,,,,,,,,,,,,,,,,,,,,,,,,,,,,
995526,001,2022-11-20_18h49.57.938,Info_measure_main_exp,2022.2.2,Win32,60.09976561,,,,,,,,,,,,,,,,,,masks/mask_005.jpg,,,,,,,,,,,,,,,,,,,,,,,,,,,,,,,,,,,,,,,,,,,,,,,,0,2,2,4,1,,,,,,,,,,,,,,,,,,,,,,,,,,,,,,,,,,,,,,,,,
995526,001,2022-11-20_18h49.57.938,Info_measure_main_exp,2022.2.2,Win32,60.09976561,,,,,,,,,,,,,,,,,,masks/mask_001.jpg,,,,,,,,,,,,,,,,,,,,,,,,,,,,,,,,,,,,,,,,,,,,,,,,0,3,3,0,1,,,,,,,,,,,,,,,,,,,,,,,,,,,,,,,,,,,,,,,,,
995526,001,2022-11-20_18h49.57.938,Info_measure_main_exp,2022.2.2,Win32,60.09976561,,,,,,,,,,,,,,,,,,masks/mask_003.jpg,,,,,,,,,,,,,,,,,,,,,,,,,,,,,,,,,,,,,,,,,,,,,,,,0,4,4,2,1,,,,,,,,,,,,,,,,,,,,,,,,,,,,,,,,,,,,,,,,,
995526,001,2022-11-20_18h49.57.938,Info_measure_main_exp,2022.2.2,Win32,60.09976561,,,,,,,,,,,,,,,,,,,,,,,,,,,,,,7,1.1333,1,,,,,,,,,,,,0,131,5,5,1974,2298,absent_patch/patch0001974.jpg,absent_patch/patch0002298.jpg,,,,,,,,,,,,,,,,,,,,0.052200053,0.074803198,1,0,0,response1disk,27,-0.002454863,-0.004863349,1,0,0,center_square,0,26,26,6,1,,,,,,,,,,,,,,,,,,,,,,,
995526,001,2022-11-20_18h49.57.938,Info_measure_main_exp,2022.2.2,Win32,60.09976561,,,,,,,,,,,,,,,,,,masks/mask_001.jpg,,,,,,,,,,,,,,,,,,,,,,,,,,,,,,,,,,,,,,,,,,,0,0,0,0,1,,,,,,,,,,,,,,,,,,,,,,,,,,,,,,,,,,,,,,,,,,,,,,
995526,001,2022-11-20_18h49.57.938,Info_measure_main_exp,2022.2.2,Win32,60.09976561,,,,,,,,,,,,,,,,,,masks/mask_003.jpg,,,,,,,,,,,,,,,,,,,,,,,,,,,,,,,,,,,,,,,,,,,0,1,1,2,1,,,,,,,,,,,,,,,,,,,,,,,,,,,,,,,,,,,,,,,,,,,,,,
995526,001,2022-11-20_18h49.57.938,Info_measure_main_exp,2022.2.2,Win32,60.09976561,,,,,,,,,,,,,,,,,,masks/mask_004.jpg,,,,,,,,,,,,,,,,,,,,,,,,,,,,,,,,,,,,,,,,,,,0,2,2,3,1,,,,,,,,,,,,,,,,,,,,,,,,,,,,,,,,,,,,,,,,,,,,,,
995526,001,2022-11-20_18h49.57.938,Info_measure_main_exp,2022.2.2,Win32,60.09976561,,,,,,,,,,,,,,,,,,masks/mask_005.jpg,,,,,,,,,,,,,,,,,,,,,,,,,,,,,,,,,,,,,,,,,,,0,3,3,4,1,,,,,,,,,,,,,,,,,,,,,,,,,,,,,,,,,,,,,,,,,,,,,,
995526,001,2022-11-20_18h49.57.938,Info_measure_main_exp,2022.2.2,Win32,60.09976561,,,,,,,,,,,,,,,,,,masks/mask_002.jpg,,,,,,,,,,,,,,,,,,,,,,,,,,,,,,,,,,,,,,,,,,,0,4,4,1,1,,,,,,,,,,,,,,,,,,,,,,,,,,,,,,,,,,,,,,,,,,,,,,
995526,001,2022-11-20_18h49.57.938,Info_measure_main_exp,2022.2.2,Win32,60.09976561,,,,,,,,,,,,,,,,,,masks/mask_005.jpg,,,,,,,,,,,,,,,,,,,,,,,,,,,,,,,,,,,,,,,,,,,,,,,,0,0,0,4,1,,,,,,,,,,,,,,,,,,,,,,,,,,,,,,,,,,,,,,,,,
995526,001,2022-11-20_18h49.57.938,Info_measure_main_exp,2022.2.2,Win32,60.09976561,,,,,,,,,,,,,,,,,,masks/mask_003.jpg,,,,,,,,,,,,,,,,,,,,,,,,,,,,,,,,,,,,,,,,,,,,,,,,0,1,1,2,1,,,,,,,,,,,,,,,,,,,,,,,,,,,,,,,,,,,,,,,,,
995526,001,2022-11-20_18h49.57.938,Info_measure_main_exp,2022.2.2,Win32,60.09976561,,,,,,,,,,,,,,,,,,masks/mask_002.jpg,,,,,,,,,,,,,,,,,,,,,,,,,,,,,,,,,,,,,,,,,,,,,,,,0,2,2,1,1,,,,,,,,,,,,,,,,,,,,,,,,,,,,,,,,,,,,,,,,,
995526,001,2022-11-20_18h49.57.938,Info_measure_main_exp,2022.2.2,Win32,60.09976561,,,,,,,,,,,,,,,,,,masks/mask_001.jpg,,,,,,,,,,,,,,,,,,,,,,,,,,,,,,,,,,,,,,,,,,,,,,,,0,3,3,0,1,,,,,,,,,,,,,,,,,,,,,,,,,,,,,,,,,,,,,,,,,
995526,001,2022-11-20_18h49.57.938,Info_measure_main_exp,2022.2.2,Win32,60.09976561,,,,,,,,,,,,,,,,,,masks/mask_004.jpg,,,,,,,,,,,,,,,,,,,,,,,,,,,,,,,,,,,,,,,,,,,,,,,,0,4,4,3,1,,,,,,,,,,,,,,,,,,,,,,,,,,,,,,,,,,,,,,,,,
995526,001,2022-11-20_18h49.57.938,Info_measure_main_exp,2022.2.2,Win32,60.09976561,,,,,,,,,,,,,,,,,,,,,,,,,,,,,,7,0.5166,1,,,,,,,,,,,,1,131,5,5,1,2166,present_patch/cong_131_5_a.jpg,absent_patch/patch0002166.jpg,,,,,,,,,,,,,,,,,,,,0.035525633,0.076655879,1,0,0,response1disk,28,0.00680864,0.000694792,1,0,0,center_square,0,27,27,54,1,,,,,,,,,,,,,,,,,,,,,,,
995526,001,2022-11-20_18h49.57.938,Info_measure_main_exp,2022.2.2,Win32,60.09976561,,,,,,,,,,,,,,,,,,masks/mask_002.jpg,,,,,,,,,,,,,,,,,,,,,,,,,,,,,,,,,,,,,,,,,,,0,0,0,1,1,,,,,,,,,,,,,,,,,,,,,,,,,,,,,,,,,,,,,,,,,,,,,,
995526,001,2022-11-20_18h49.57.938,Info_measure_main_exp,2022.2.2,Win32,60.09976561,,,,,,,,,,,,,,,,,,masks/mask_003.jpg,,,,,,,,,,,,,,,,,,,,,,,,,,,,,,,,,,,,,,,,,,,0,1,1,2,1,,,,,,,,,,,,,,,,,,,,,,,,,,,,,,,,,,,,,,,,,,,,,,
995526,001,2022-11-20_18h49.57.938,Info_measure_main_exp,2022.2.2,Win32,60.09976561,,,,,,,,,,,,,,,,,,masks/mask_005.jpg,,,,,,,,,,,,,,,,,,,,,,,,,,,,,,,,,,,,,,,,,,,0,2,2,4,1,,,,,,,,,,,,,,,,,,,,,,,,,,,,,,,,,,,,,,,,,,,,,,
995526,001,2022-11-20_18h49.57.938,Info_measure_main_exp,2022.2.2,Win32,60.09976561,,,,,,,,,,,,,,,,,,masks/mask_004.jpg,,,,,,,,,,,,,,,,,,,,,,,,,,,,,,,,,,,,,,,,,,,0,3,3,3,1,,,,,,,,,,,,,,,,,,,,,,,,,,,,,,,,,,,,,,,,,,,,,,
995526,001,2022-11-20_18h49.57.938,Info_measure_main_exp,2022.2.2,Win32,60.09976561,,,,,,,,,,,,,,,,,,masks/mask_001.jpg,,,,,,,,,,,,,,,,,,,,,,,,,,,,,,,,,,,,,,,,,,,0,4,4,0,1,,,,,,,,,,,,,,,,,,,,,,,,,,,,,,,,,,,,,,,,,,,,,,
995526,001,2022-11-20_18h49.57.938,Info_measure_main_exp,2022.2.2,Win32,60.09976561,,,,,,,,,,,,,,,,,,masks/mask_003.jpg,,,,,,,,,,,,,,,,,,,,,,,,,,,,,,,,,,,,,,,,,,,,,,,,0,0,0,2,1,,,,,,,,,,,,,,,,,,,,,,,,,,,,,,,,,,,,,,,,,
995526,001,2022-11-20_18h49.57.938,Info_measure_main_exp,2022.2.2,Win32,60.09976561,,,,,,,,,,,,,,,,,,masks/mask_002.jpg,,,,,,,,,,,,,,,,,,,,,,,,,,,,,,,,,,,,,,,,,,,,,,,,0,1,1,1,1,,,,,,,,,,,,,,,,,,,,,,,,,,,,,,,,,,,,,,,,,
995526,001,2022-11-20_18h49.57.938,Info_measure_main_exp,2022.2.2,Win32,60.09976561,,,,,,,,,,,,,,,,,,masks/mask_001.jpg,,,,,,,,,,,,,,,,,,,,,,,,,,,,,,,,,,,,,,,,,,,,,,,,0,2,2,0,1,,,,,,,,,,,,,,,,,,,,,,,,,,,,,,,,,,,,,,,,,
995526,001,2022-11-20_18h49.57.938,Info_measure_main_exp,2022.2.2,Win32,60.09976561,,,,,,,,,,,,,,,,,,masks/mask_005.jpg,,,,,,,,,,,,,,,,,,,,,,,,,,,,,,,,,,,,,,,,,,,,,,,,0,3,3,4,1,,,,,,,,,,,,,,,,,,,,,,,,,,,,,,,,,,,,,,,,,
995526,001,2022-11-20_18h49.57.938,Info_measure_main_exp,2022.2.2,Win32,60.09976561,,,,,,,,,,,,,,,,,,masks/mask_004.jpg,,,,,,,,,,,,,,,,,,,,,,,,,,,,,,,,,,,,,,,,,,,,,,,,0,4,4,3,1,,,,,,,,,,,,,,,,,,,,,,,,,,,,,,,,,,,,,,,,,
995526,001,2022-11-20_18h49.57.938,Info_measure_main_exp,2022.2.2,Win32,60.09976561,,,,,,,,,,,,,,,,,,,,,,,,,,,,,,6,0.6834,1,,,,,,,,,,,,0,131,5,5,2274,2214,absent_patch/patch0002274.jpg,absent_patch/patch0002214.jpg,,,,,,,,,,,,,,,,,,,,0.069800766,0.034969973,1,0,0,response1disk,29,0.003103277,0.009958342,1,0,0,center_square,0,28,28,11,1,,,,,,,,,,,,,,,,,,,,,,,
995526,001,2022-11-20_18h49.57.938,Info_measure_main_exp,2022.2.2,Win32,60.09976561,,,,,,,,,,,,,,,,,,masks/mask_004.jpg,,,,,,,,,,,,,,,,,,,,,,,,,,,,,,,,,,,,,,,,,,,0,0,0,3,1,,,,,,,,,,,,,,,,,,,,,,,,,,,,,,,,,,,,,,,,,,,,,,
995526,001,2022-11-20_18h49.57.938,Info_measure_main_exp,2022.2.2,Win32,60.09976561,,,,,,,,,,,,,,,,,,masks/mask_002.jpg,,,,,,,,,,,,,,,,,,,,,,,,,,,,,,,,,,,,,,,,,,,0,1,1,1,1,,,,,,,,,,,,,,,,,,,,,,,,,,,,,,,,,,,,,,,,,,,,,,
995526,001,2022-11-20_18h49.57.938,Info_measure_main_exp,2022.2.2,Win32,60.09976561,,,,,,,,,,,,,,,,,,masks/mask_003.jpg,,,,,,,,,,,,,,,,,,,,,,,,,,,,,,,,,,,,,,,,,,,0,2,2,2,1,,,,,,,,,,,,,,,,,,,,,,,,,,,,,,,,,,,,,,,,,,,,,,
995526,001,2022-11-20_18h49.57.938,Info_measure_main_exp,2022.2.2,Win32,60.09976561,,,,,,,,,,,,,,,,,,masks/mask_001.jpg,,,,,,,,,,,,,,,,,,,,,,,,,,,,,,,,,,,,,,,,,,,0,3,3,0,1,,,,,,,,,,,,,,,,,,,,,,,,,,,,,,,,,,,,,,,,,,,,,,
995526,001,2022-11-20_18h49.57.938,Info_measure_main_exp,2022.2.2,Win32,60.09976561,,,,,,,,,,,,,,,,,,masks/mask_005.jpg,,,,,,,,,,,,,,,,,,,,,,,,,,,,,,,,,,,,,,,,,,,0,4,4,4,1,,,,,,,,,,,,,,,,,,,,,,,,,,,,,,,,,,,,,,,,,,,,,,
995526,001,2022-11-20_18h49.57.938,Info_measure_main_exp,2022.2.2,Win32,60.09976561,,,,,,,,,,,,,,,,,,masks/mask_002.jpg,,,,,,,,,,,,,,,,,,,,,,,,,,,,,,,,,,,,,,,,,,,,,,,,0,0,0,1,1,,,,,,,,,,,,,,,,,,,,,,,,,,,,,,,,,,,,,,,,,
995526,001,2022-11-20_18h49.57.938,Info_measure_main_exp,2022.2.2,Win32,60.09976561,,,,,,,,,,,,,,,,,,masks/mask_003.jpg,,,,,,,,,,,,,,,,,,,,,,,,,,,,,,,,,,,,,,,,,,,,,,,,0,1,1,2,1,,,,,,,,,,,,,,,,,,,,,,,,,,,,,,,,,,,,,,,,,
995526,001,2022-11-20_18h49.57.938,Info_measure_main_exp,2022.2.2,Win32,60.09976561,,,,,,,,,,,,,,,,,,masks/mask_004.jpg,,,,,,,,,,,,,,,,,,,,,,,,,,,,,,,,,,,,,,,,,,,,,,,,0,2,2,3,1,,,,,,,,,,,,,,,,,,,,,,,,,,,,,,,,,,,,,,,,,
995526,001,2022-11-20_18h49.57.938,Info_measure_main_exp,2022.2.2,Win32,60.09976561,,,,,,,,,,,,,,,,,,masks/mask_001.jpg,,,,,,,,,,,,,,,,,,,,,,,,,,,,,,,,,,,,,,,,,,,,,,,,0,3,3,0,1,,,,,,,,,,,,,,,,,,,,,,,,,,,,,,,,,,,,,,,,,
995526,001,2022-11-20_18h49.57.938,Info_measure_main_exp,2022.2.2,Win32,60.09976561,,,,,,,,,,,,,,,,,,masks/mask_005.jpg,,,,,,,,,,,,,,,,,,,,,,,,,,,,,,,,,,,,,,,,,,,,,,,,0,4,4,4,1,,,,,,,,,,,,,,,,,,,,,,,,,,,,,,,,,,,,,,,,,
995526,001,2022-11-20_18h49.57.938,Info_measure_main_exp,2022.2.2,Win32,60.09976561,,,,,,,,,,,,,,,,,,,,,,,,,,,,,,7,0.9,1,,,,,,,,,,,,0,131,5,5,1974,2238,absent_patch/patch0001974.jpg,absent_patch/patch0002238.jpg,,,,,,,,,,,,,,,,,,,,0.052200053,0.093330251,1,0,0,response1disk,30,-0.00152857,-0.004863349,1,0,0,center_square,0,29,29,95,1,,,,,,,,,,,,,,,,,,,,,,,
995526,001,2022-11-20_18h49.57.938,Info_measure_main_exp,2022.2.2,Win32,60.09976561,,,,,,,,,,,,,,,,,,masks/mask_001.jpg,,,,,,,,,,,,,,,,,,,,,,,,,,,,,,,,,,,,,,,,,,,0,0,0,0,1,,,,,,,,,,,,,,,,,,,,,,,,,,,,,,,,,,,,,,,,,,,,,,
995526,001,2022-11-20_18h49.57.938,Info_measure_main_exp,2022.2.2,Win32,60.09976561,,,,,,,,,,,,,,,,,,masks/mask_005.jpg,,,,,,,,,,,,,,,,,,,,,,,,,,,,,,,,,,,,,,,,,,,0,1,1,4,1,,,,,,,,,,,,,,,,,,,,,,,,,,,,,,,,,,,,,,,,,,,,,,
995526,001,2022-11-20_18h49.57.938,Info_measure_main_exp,2022.2.2,Win32,60.09976561,,,,,,,,,,,,,,,,,,masks/mask_002.jpg,,,,,,,,,,,,,,,,,,,,,,,,,,,,,,,,,,,,,,,,,,,0,2,2,1,1,,,,,,,,,,,,,,,,,,,,,,,,,,,,,,,,,,,,,,,,,,,,,,
995526,001,2022-11-20_18h49.57.938,Info_measure_main_exp,2022.2.2,Win32,60.09976561,,,,,,,,,,,,,,,,,,masks/mask_003.jpg,,,,,,,,,,,,,,,,,,,,,,,,,,,,,,,,,,,,,,,,,,,0,3,3,2,1,,,,,,,,,,,,,,,,,,,,,,,,,,,,,,,,,,,,,,,,,,,,,,
995526,001,2022-11-20_18h49.57.938,Info_measure_main_exp,2022.2.2,Win32,60.09976561,,,,,,,,,,,,,,,,,,masks/mask_004.jpg,,,,,,,,,,,,,,,,,,,,,,,,,,,,,,,,,,,,,,,,,,,0,4,4,3,1,,,,,,,,,,,,,,,,,,,,,,,,,,,,,,,,,,,,,,,,,,,,,,
995526,001,2022-11-20_18h49.57.938,Info_measure_main_exp,2022.2.2,Win32,60.09976561,,,,,,,,,,,,,,,,,,masks/mask_005.jpg,,,,,,,,,,,,,,,,,,,,,,,,,,,,,,,,,,,,,,,,,,,,,,,,0,0,0,4,1,,,,,,,,,,,,,,,,,,,,,,,,,,,,,,,,,,,,,,,,,
995526,001,2022-11-20_18h49.57.938,Info_measure_main_exp,2022.2.2,Win32,60.09976561,,,,,,,,,,,,,,,,,,masks/mask_004.jpg,,,,,,,,,,,,,,,,,,,,,,,,,,,,,,,,,,,,,,,,,,,,,,,,0,1,1,3,1,,,,,,,,,,,,,,,,,,,,,,,,,,,,,,,,,,,,,,,,,
995526,001,2022-11-20_18h49.57.938,Info_measure_main_exp,2022.2.2,Win32,60.09976561,,,,,,,,,,,,,,,,,,masks/mask_001.jpg,,,,,,,,,,,,,,,,,,,,,,,,,,,,,,,,,,,,,,,,,,,,,,,,0,2,2,0,1,,,,,,,,,,,,,,,,,,,,,,,,,,,,,,,,,,,,,,,,,
995526,001,2022-11-20_18h49.57.938,Info_measure_main_exp,2022.2.2,Win32,60.09976561,,,,,,,,,,,,,,,,,,masks/mask_002.jpg,,,,,,,,,,,,,,,,,,,,,,,,,,,,,,,,,,,,,,,,,,,,,,,,0,3,3,1,1,,,,,,,,,,,,,,,,,,,,,,,,,,,,,,,,,,,,,,,,,
995526,001,2022-11-20_18h49.57.938,Info_measure_main_exp,2022.2.2,Win32,60.09976561,,,,,,,,,,,,,,,,,,masks/mask_003.jpg,,,,,,,,,,,,,,,,,,,,,,,,,,,,,,,,,,,,,,,,,,,,,,,,0,4,4,2,1,,,,,,,,,,,,,,,,,,,,,,,,,,,,,,,,,,,,,,,,,
995526,001,2022-11-20_18h49.57.938,Info_measure_main_exp,2022.2.2,Win32,60.09976561,,,,,,,,,,,,,,,,,,,,,,,,,,,,,,2,1.2832,1,,,,,,,,,,,,0,131,5,5,2082,1974,absent_patch/patch0002082.jpg,absent_patch/patch0001974.jpg,,,,,,,,,,,,,,,,,,,,-0.0923113,-0.024316791,1,0,0,response5disk,31,0.010514099,-0.01227417,1,0,0,center_square,0,30,30,26,1,,,,,,,,,,,,,,,,,,,,,,,
995526,001,2022-11-20_18h49.57.938,Info_measure_main_exp,2022.2.2,Win32,60.09976561,,,,,,,,,,,,,,,,,,masks/mask_002.jpg,,,,,,,,,,,,,,,,,,,,,,,,,,,,,,,,,,,,,,,,,,,0,0,0,1,1,,,,,,,,,,,,,,,,,,,,,,,,,,,,,,,,,,,,,,,,,,,,,,
995526,001,2022-11-20_18h49.57.938,Info_measure_main_exp,2022.2.2,Win32,60.09976561,,,,,,,,,,,,,,,,,,masks/mask_003.jpg,,,,,,,,,,,,,,,,,,,,,,,,,,,,,,,,,,,,,,,,,,,0,1,1,2,1,,,,,,,,,,,,,,,,,,,,,,,,,,,,,,,,,,,,,,,,,,,,,,
995526,001,2022-11-20_18h49.57.938,Info_measure_main_exp,2022.2.2,Win32,60.09976561,,,,,,,,,,,,,,,,,,masks/mask_001.jpg,,,,,,,,,,,,,,,,,,,,,,,,,,,,,,,,,,,,,,,,,,,0,2,2,0,1,,,,,,,,,,,,,,,,,,,,,,,,,,,,,,,,,,,,,,,,,,,,,,
995526,001,2022-11-20_18h49.57.938,Info_measure_main_exp,2022.2.2,Win32,60.09976561,,,,,,,,,,,,,,,,,,masks/mask_005.jpg,,,,,,,,,,,,,,,,,,,,,,,,,,,,,,,,,,,,,,,,,,,0,3,3,4,1,,,,,,,,,,,,,,,,,,,,,,,,,,,,,,,,,,,,,,,,,,,,,,
995526,001,2022-11-20_18h49.57.938,Info_measure_main_exp,2022.2.2,Win32,60.09976561,,,,,,,,,,,,,,,,,,masks/mask_004.jpg,,,,,,,,,,,,,,,,,,,,,,,,,,,,,,,,,,,,,,,,,,,0,4,4,3,1,,,,,,,,,,,,,,,,,,,,,,,,,,,,,,,,,,,,,,,,,,,,,,
995526,001,2022-11-20_18h49.57.938,Info_measure_main_exp,2022.2.2,Win32,60.09976561,,,,,,,,,,,,,,,,,,masks/mask_005.jpg,,,,,,,,,,,,,,,,,,,,,,,,,,,,,,,,,,,,,,,,,,,,,,,,0,0,0,4,1,,,,,,,,,,,,,,,,,,,,,,,,,,,,,,,,,,,,,,,,,
995526,001,2022-11-20_18h49.57.938,Info_measure_main_exp,2022.2.2,Win32,60.09976561,,,,,,,,,,,,,,,,,,masks/mask_003.jpg,,,,,,,,,,,,,,,,,,,,,,,,,,,,,,,,,,,,,,,,,,,,,,,,0,1,1,2,1,,,,,,,,,,,,,,,,,,,,,,,,,,,,,,,,,,,,,,,,,
995526,001,2022-11-20_18h49.57.938,Info_measure_main_exp,2022.2.2,Win32,60.09976561,,,,,,,,,,,,,,,,,,masks/mask_002.jpg,,,,,,,,,,,,,,,,,,,,,,,,,,,,,,,,,,,,,,,,,,,,,,,,0,2,2,1,1,,,,,,,,,,,,,,,,,,,,,,,,,,,,,,,,,,,,,,,,,
995526,001,2022-11-20_18h49.57.938,Info_measure_main_exp,2022.2.2,Win32,60.09976561,,,,,,,,,,,,,,,,,,masks/mask_004.jpg,,,,,,,,,,,,,,,,,,,,,,,,,,,,,,,,,,,,,,,,,,,,,,,,0,3,3,3,1,,,,,,,,,,,,,,,,,,,,,,,,,,,,,,,,,,,,,,,,,
995526,001,2022-11-20_18h49.57.938,Info_measure_main_exp,2022.2.2,Win32,60.09976561,,,,,,,,,,,,,,,,,,masks/mask_001.jpg,,,,,,,,,,,,,,,,,,,,,,,,,,,,,,,,,,,,,,,,,,,,,,,,0,4,4,0,1,,,,,,,,,,,,,,,,,,,,,,,,,,,,,,,,,,,,,,,,,
995526,001,2022-11-20_18h49.57.938,Info_measure_main_exp,2022.2.2,Win32,60.09976561,,,,,,,,,,,,,,,,,,,,,,,,,,,,,,7,0.4835,1,,,,,,,,,,,,0,131,5,5,2154,1950,absent_patch/patch0002154.jpg,absent_patch/patch0001950.jpg,,,,,,,,,,,,,,,,,,,,0.042936454,0.073876809,1,0,0,response1disk,32,-0.002454863,-0.002084278,1,0,0,center_square,0,31,31,96,1,,,,,,,,,,,,,,,,,,,,,,,
995526,001,2022-11-20_18h49.57.938,Info_measure_main_exp,2022.2.2,Win32,60.09976561,,,,,,,,,,,,,,,,,,masks/mask_001.jpg,,,,,,,,,,,,,,,,,,,,,,,,,,,,,,,,,,,,,,,,,,,0,0,0,0,1,,,,,,,,,,,,,,,,,,,,,,,,,,,,,,,,,,,,,,,,,,,,,,
995526,001,2022-11-20_18h49.57.938,Info_measure_main_exp,2022.2.2,Win32,60.09976561,,,,,,,,,,,,,,,,,,masks/mask_004.jpg,,,,,,,,,,,,,,,,,,,,,,,,,,,,,,,,,,,,,,,,,,,0,1,1,3,1,,,,,,,,,,,,,,,,,,,,,,,,,,,,,,,,,,,,,,,,,,,,,,
995526,001,2022-11-20_18h49.57.938,Info_measure_main_exp,2022.2.2,Win32,60.09976561,,,,,,,,,,,,,,,,,,masks/mask_003.jpg,,,,,,,,,,,,,,,,,,,,,,,,,,,,,,,,,,,,,,,,,,,0,2,2,2,1,,,,,,,,,,,,,,,,,,,,,,,,,,,,,,,,,,,,,,,,,,,,,,
995526,001,2022-11-20_18h49.57.938,Info_measure_main_exp,2022.2.2,Win32,60.09976561,,,,,,,,,,,,,,,,,,masks/mask_002.jpg,,,,,,,,,,,,,,,,,,,,,,,,,,,,,,,,,,,,,,,,,,,0,3,3,1,1,,,,,,,,,,,,,,,,,,,,,,,,,,,,,,,,,,,,,,,,,,,,,,
995526,001,2022-11-20_18h49.57.938,Info_measure_main_exp,2022.2.2,Win32,60.09976561,,,,,,,,,,,,,,,,,,masks/mask_005.jpg,,,,,,,,,,,,,,,,,,,,,,,,,,,,,,,,,,,,,,,,,,,0,4,4,4,1,,,,,,,,,,,,,,,,,,,,,,,,,,,,,,,,,,,,,,,,,,,,,,
995526,001,2022-11-20_18h49.57.938,Info_measure_main_exp,2022.2.2,Win32,60.09976561,,,,,,,,,,,,,,,,,,masks/mask_004.jpg,,,,,,,,,,,,,,,,,,,,,,,,,,,,,,,,,,,,,,,,,,,,,,,,0,0,0,3,1,,,,,,,,,,,,,,,,,,,,,,,,,,,,,,,,,,,,,,,,,
995526,001,2022-11-20_18h49.57.938,Info_measure_main_exp,2022.2.2,Win32,60.09976561,,,,,,,,,,,,,,,,,,masks/mask_002.jpg,,,,,,,,,,,,,,,,,,,,,,,,,,,,,,,,,,,,,,,,,,,,,,,,0,1,1,1,1,,,,,,,,,,,,,,,,,,,,,,,,,,,,,,,,,,,,,,,,,
995526,001,2022-11-20_18h49.57.938,Info_measure_main_exp,2022.2.2,Win32,60.09976561,,,,,,,,,,,,,,,,,,masks/mask_003.jpg,,,,,,,,,,,,,,,,,,,,,,,,,,,,,,,,,,,,,,,,,,,,,,,,0,2,2,2,1,,,,,,,,,,,,,,,,,,,,,,,,,,,,,,,,,,,,,,,,,
995526,001,2022-11-20_18h49.57.938,Info_measure_main_exp,2022.2.2,Win32,60.09976561,,,,,,,,,,,,,,,,,,masks/mask_005.jpg,,,,,,,,,,,,,,,,,,,,,,,,,,,,,,,,,,,,,,,,,,,,,,,,0,3,3,4,1,,,,,,,,,,,,,,,,,,,,,,,,,,,,,,,,,,,,,,,,,
995526,001,2022-11-20_18h49.57.938,Info_measure_main_exp,2022.2.2,Win32,60.09976561,,,,,,,,,,,,,,,,,,masks/mask_001.jpg,,,,,,,,,,,,,,,,,,,,,,,,,,,,,,,,,,,,,,,,,,,,,,,,0,4,4,0,1,,,,,,,,,,,,,,,,,,,,,,,,,,,,,,,,,,,,,,,,,
995526,001,2022-11-20_18h49.57.938,Info_measure_main_exp,2022.2.2,Win32,60.09976561,,,,,,,,,,,,,,,,,,,,,,,,,,,,,,4,1.1334,1,,,,,,,,,,,,0,131,5,5,2178,2238,absent_patch/patch0002178.jpg,absent_patch/patch0002238.jpg,,,,,,,,,,,,,,,,,,,,0.024409353,-0.117878543,1,0,0,response3disk,33,0.007735029,0.004400202,1,0,0,center_square,0,32,32,57,1,,,,,,,,,,,,,,,,,,,,,,,
995526,001,2022-11-20_18h49.57.938,Info_measure_main_exp,2022.2.2,Win32,60.09976561,,,,,,,,,,,,,,,,,,masks/mask_003.jpg,,,,,,,,,,,,,,,,,,,,,,,,,,,,,,,,,,,,,,,,,,,0,0,0,2,1,,,,,,,,,,,,,,,,,,,,,,,,,,,,,,,,,,,,,,,,,,,,,,
995526,001,2022-11-20_18h49.57.938,Info_measure_main_exp,2022.2.2,Win32,60.09976561,,,,,,,,,,,,,,,,,,masks/mask_002.jpg,,,,,,,,,,,,,,,,,,,,,,,,,,,,,,,,,,,,,,,,,,,0,1,1,1,1,,,,,,,,,,,,,,,,,,,,,,,,,,,,,,,,,,,,,,,,,,,,,,
995526,001,2022-11-20_18h49.57.938,Info_measure_main_exp,2022.2.2,Win32,60.09976561,,,,,,,,,,,,,,,,,,masks/mask_005.jpg,,,,,,,,,,,,,,,,,,,,,,,,,,,,,,,,,,,,,,,,,,,0,2,2,4,1,,,,,,,,,,,,,,,,,,,,,,,,,,,,,,,,,,,,,,,,,,,,,,
995526,001,2022-11-20_18h49.57.938,Info_measure_main_exp,2022.2.2,Win32,60.09976561,,,,,,,,,,,,,,,,,,masks/mask_001.jpg,,,,,,,,,,,,,,,,,,,,,,,,,,,,,,,,,,,,,,,,,,,0,3,3,0,1,,,,,,,,,,,,,,,,,,,,,,,,,,,,,,,,,,,,,,,,,,,,,,
995526,001,2022-11-20_18h49.57.938,Info_measure_main_exp,2022.2.2,Win32,60.09976561,,,,,,,,,,,,,,,,,,masks/mask_004.jpg,,,,,,,,,,,,,,,,,,,,,,,,,,,,,,,,,,,,,,,,,,,0,4,4,3,1,,,,,,,,,,,,,,,,,,,,,,,,,,,,,,,,,,,,,,,,,,,,,,
995526,001,2022-11-20_18h49.57.938,Info_measure_main_exp,2022.2.2,Win32,60.09976561,,,,,,,,,,,,,,,,,,masks/mask_001.jpg,,,,,,,,,,,,,,,,,,,,,,,,,,,,,,,,,,,,,,,,,,,,,,,,0,0,0,0,1,,,,,,,,,,,,,,,,,,,,,,,,,,,,,,,,,,,,,,,,,
995526,001,2022-11-20_18h49.57.938,Info_measure_main_exp,2022.2.2,Win32,60.09976561,,,,,,,,,,,,,,,,,,masks/mask_004.jpg,,,,,,,,,,,,,,,,,,,,,,,,,,,,,,,,,,,,,,,,,,,,,,,,0,1,1,3,1,,,,,,,,,,,,,,,,,,,,,,,,,,,,,,,,,,,,,,,,,
995526,001,2022-11-20_18h49.57.938,Info_measure_main_exp,2022.2.2,Win32,60.09976561,,,,,,,,,,,,,,,,,,masks/mask_002.jpg,,,,,,,,,,,,,,,,,,,,,,,,,,,,,,,,,,,,,,,,,,,,,,,,0,2,2,1,1,,,,,,,,,,,,,,,,,,,,,,,,,,,,,,,,,,,,,,,,,
995526,001,2022-11-20_18h49.57.938,Info_measure_main_exp,2022.2.2,Win32,60.09976561,,,,,,,,,,,,,,,,,,masks/mask_003.jpg,,,,,,,,,,,,,,,,,,,,,,,,,,,,,,,,,,,,,,,,,,,,,,,,0,3,3,2,1,,,,,,,,,,,,,,,,,,,,,,,,,,,,,,,,,,,,,,,,,
995526,001,2022-11-20_18h49.57.938,Info_measure_main_exp,2022.2.2,Win32,60.09976561,,,,,,,,,,,,,,,,,,masks/mask_005.jpg,,,,,,,,,,,,,,,,,,,,,,,,,,,,,,,,,,,,,,,,,,,,,,,,0,4,4,4,1,,,,,,,,,,,,,,,,,,,,,,,,,,,,,,,,,,,,,,,,,
995526,001,2022-11-20_18h49.57.938,Info_measure_main_exp,2022.2.2,Win32,60.09976561,,,,,,,,,,,,,,,,,,,,,,,,,,,,,,7,0.7502,1,,,,,,,,,,,,0,131,5,5,1974,2214,absent_patch/patch0001974.jpg,absent_patch/patch0002214.jpg,,,,,,,,,,,,,,,,,,,,0.054052734,0.08591943,1,0,0,response1disk,34,0.00402957,0.005326639,1,0,0,center_square,0,33,33,24,1,,,,,,,,,,,,,,,,,,,,,,,
995526,001,2022-11-20_18h49.57.938,Info_measure_main_exp,2022.2.2,Win32,60.09976561,,,,,,,,,,,,,,,,,,masks/mask_005.jpg,,,,,,,,,,,,,,,,,,,,,,,,,,,,,,,,,,,,,,,,,,,0,0,0,4,1,,,,,,,,,,,,,,,,,,,,,,,,,,,,,,,,,,,,,,,,,,,,,,
995526,001,2022-11-20_18h49.57.938,Info_measure_main_exp,2022.2.2,Win32,60.09976561,,,,,,,,,,,,,,,,,,masks/mask_002.jpg,,,,,,,,,,,,,,,,,,,,,,,,,,,,,,,,,,,,,,,,,,,0,1,1,1,1,,,,,,,,,,,,,,,,,,,,,,,,,,,,,,,,,,,,,,,,,,,,,,
995526,001,2022-11-20_18h49.57.938,Info_measure_main_exp,2022.2.2,Win32,60.09976561,,,,,,,,,,,,,,,,,,masks/mask_001.jpg,,,,,,,,,,,,,,,,,,,,,,,,,,,,,,,,,,,,,,,,,,,0,2,2,0,1,,,,,,,,,,,,,,,,,,,,,,,,,,,,,,,,,,,,,,,,,,,,,,
995526,001,2022-11-20_18h49.57.938,Info_measure_main_exp,2022.2.2,Win32,60.09976561,,,,,,,,,,,,,,,,,,masks/mask_003.jpg,,,,,,,,,,,,,,,,,,,,,,,,,,,,,,,,,,,,,,,,,,,0,3,3,2,1,,,,,,,,,,,,,,,,,,,,,,,,,,,,,,,,,,,,,,,,,,,,,,
995526,001,2022-11-20_18h49.57.938,Info_measure_main_exp,2022.2.2,Win32,60.09976561,,,,,,,,,,,,,,,,,,masks/mask_004.jpg,,,,,,,,,,,,,,,,,,,,,,,,,,,,,,,,,,,,,,,,,,,0,4,4,3,1,,,,,,,,,,,,,,,,,,,,,,,,,,,,,,,,,,,,,,,,,,,,,,
995526,001,2022-11-20_18h49.57.938,Info_measure_main_exp,2022.2.2,Win32,60.09976561,,,,,,,,,,,,,,,,,,masks/mask_005.jpg,,,,,,,,,,,,,,,,,,,,,,,,,,,,,,,,,,,,,,,,,,,,,,,,0,0,0,4,1,,,,,,,,,,,,,,,,,,,,,,,,,,,,,,,,,,,,,,,,,
995526,001,2022-11-20_18h49.57.938,Info_measure_main_exp,2022.2.2,Win32,60.09976561,,,,,,,,,,,,,,,,,,masks/mask_001.jpg,,,,,,,,,,,,,,,,,,,,,,,,,,,,,,,,,,,,,,,,,,,,,,,,0,1,1,0,1,,,,,,,,,,,,,,,,,,,,,,,,,,,,,,,,,,,,,,,,,
995526,001,2022-11-20_18h49.57.938,Info_measure_main_exp,2022.2.2,Win32,60.09976561,,,,,,,,,,,,,,,,,,masks/mask_004.jpg,,,,,,,,,,,,,,,,,,,,,,,,,,,,,,,,,,,,,,,,,,,,,,,,0,2,2,3,1,,,,,,,,,,,,,,,,,,,,,,,,,,,,,,,,,,,,,,,,,
995526,001,2022-11-20_18h49.57.938,Info_measure_main_exp,2022.2.2,Win32,60.09976561,,,,,,,,,,,,,,,,,,masks/mask_003.jpg,,,,,,,,,,,,,,,,,,,,,,,,,,,,,,,,,,,,,,,,,,,,,,,,0,3,3,2,1,,,,,,,,,,,,,,,,,,,,,,,,,,,,,,,,,,,,,,,,,
