participant,session,date,expName,psychopyVersion,OS,frameRate,space_press_continue.keys,space_press_continue.rt,space_press_continue_2.keys,space_press_continue_2.rt,space_press_continue_3.keys,space_press_continue_3.rt,space_press_continue_4.keys,space_press_continue_4.rt,space_press_continue_5.keys,space_press_continue_5.rt,space_press_continue_6.keys,space_press_continue_6.rt,prac_mask_loop_1.thisRepN,prac_mask_loop_1.thisTrialN,prac_mask_loop_1.thisN,prac_mask_loop_1.thisIndex,prac_mask_loop_1.ran,mask_name,prac_mask_loop_2.thisRepN,prac_mask_loop_2.thisTrialN,prac_mask_loop_2.thisN,prac_mask_loop_2.thisIndex,prac_mask_loop_2.ran,mouse_2.x,mouse_2.y,mouse_2.leftButton,mouse_2.midButton,mouse_2.rightButton,mouse_2.clicked_name,similarity,response_time,Pass,mouse_12.x,mouse_12.y,mouse_12.leftButton,mouse_12.midButton,mouse_12.rightButton,mouse_12.clicked_name,prac_loop.thisRepN,prac_loop.thisTrialN,prac_loop.thisN,prac_loop.thisIndex,prac_loop.ran,Pair_type,Image_num,Patch_1_loc,Patch_2_loc,Patch_1_info,Patch_2_info,Patch_1_name,Patch_2_name,mouse_1.x,mouse_1.y,mouse_1.leftButton,mouse_1.midButton,mouse_1.rightButton,mouse_1.time,mouse_1.clicked_name,space_press_continue_7.keys,space_press_continue_7.rt,mask_loop.thisRepN,mask_loop.thisTrialN,mask_loop.thisN,mask_loop.thisIndex,mask_loop.ran,mask_loop_2.thisRepN,mask_loop_2.thisTrialN,mask_loop_2.thisN,mask_loop_2.thisIndex,mask_loop_2.ran,mouse.x,mouse.y,mouse.leftButton,mouse.midButton,mouse.rightButton,mouse.clicked_name,trialNumber,mouse_11.x,mouse_11.y,mouse_11.leftButton,mouse_11.midButton,mouse_11.rightButton,mouse_11.clicked_name,first_pass_loop.thisRepN,first_pass_loop.thisTrialN,first_pass_loop.thisN,first_pass_loop.thisIndex,first_pass_loop.ran,mask_loop_3.thisRepN,mask_loop_3.thisTrialN,mask_loop_3.thisN,mask_loop_3.thisIndex,mask_loop_3.ran,mask_loop_4.thisRepN,mask_loop_4.thisTrialN,mask_loop_4.thisN,mask_loop_4.thisIndex,mask_loop_4.ran,mouse_3.x,mouse_3.y,mouse_3.leftButton,mouse_3.midButton,mouse_3.rightButton,mouse_3.clicked_name,double_pass_loop.thisRepN,double_pass_loop.thisTrialN,double_pass_loop.thisN,double_pass_loop.thisIndex,double_pass_loop.ran,space_exit.keys,space_exit.rt
mauriello,001,2022-11-21_24h46.54.267,Info_measure_main_exp,2022.2.2,Win32,61.06497313,,,,,,,,,,,,,,,,,,,,,,,,,,,,,,,,,,,,,,,,,,,,,,,,,,,,,,,,,,,,,,,,,,,,,,,,,,,,,,,,,,,,,,,,,,,,,,,,,,,,,,,,,,,,,,,
mauriello,001,2022-11-21_24h46.54.267,Info_measure_main_exp,2022.2.2,Win32,61.06497313,,,,,,,,,,,,,,,,,,,,,,,,,,,,,,,,,,,,,,,,,,,,,,,,,,,,,,,,,,,,,,,,,,,,,,,,,,,,,,,,,,,,,,,,,,,,,,,,,,,,,,,,,,,,,,,
mauriello,001,2022-11-21_24h46.54.267,Info_measure_main_exp,2022.2.2,Win32,61.06497313,space,8.0363,,,,,,,,,,,,,,,,,,,,,,,,,,,,,,,,,,,,,,,,,,,,,,,,,,,,,,,,,,,,,,,,,,,,,,,,,,,,,,,,,,,,,,,,,,,,,,,,,,,,,,,,,,,,,
mauriello,001,2022-11-21_24h46.54.267,Info_measure_main_exp,2022.2.2,Win32,61.06497313,,,space,8.6241,,,,,,,,,,,,,,,,,,,,,,,,,,,,,,,,,,,,,,,,,,,,,,,,,,,,,,,,,,,,,,,,,,,,,,,,,,,,,,,,,,,,,,,,,,,,,,,,,,,,,,,,,,,
mauriello,001,2022-11-21_24h46.54.267,Info_measure_main_exp,2022.2.2,Win32,61.06497313,,,,,space,5.201,,,,,,,,,,,,,,,,,,,,,,,,,,,,,,,,,,,,,,,,,,,,,,,,,,,,,,,,,,,,,,,,,,,,,,,,,,,,,,,,,,,,,,,,,,,,,,,,,,,,,,,,,
mauriello,001,2022-11-21_24h46.54.267,Info_measure_main_exp,2022.2.2,Win32,61.06497313,,,,,,,space,8.1139,,,,,,,,,,,,,,,,,,,,,,,,,,,,,,,,,,,,,,,,,,,,,,,,,,,,,,,,,,,,,,,,,,,,,,,,,,,,,,,,,,,,,,,,,,,,,,,,,,,,,,,
mauriello,001,2022-11-21_24h46.54.267,Info_measure_main_exp,2022.2.2,Win32,61.06497313,,,,,,,,,space,6.0842,,,,,,,,,,,,,,,,,,,,,,,,,,,,,,,,,,,,,,,,,,,,,,,,,,,,,,,,,,,,,,,,,,,,,,,,,,,,,,,,,,,,,,,,,,,,,,,,,,,,,
mauriello,001,2022-11-21_24h46.54.267,Info_measure_main_exp,2022.2.2,Win32,61.06497313,,,,,,,,,,,space,5.0662,,,,,,,,,,,,,,,,,,,,,,,,,,,,,,,,,,,,,,,,,,,,,,,,,,,,,,,,,,,,,,,,,,,,,,,,,,,,,,,,,,,,,,,,,,,,,,,,,,,
mauriello,001,2022-11-21_24h46.54.267,Info_measure_main_exp,2022.2.2,Win32,61.06497313,,,,,,,,,,,,,0,0,0,0,1,masks/mask_001.jpg,,,,,,,,,,,,,,,,,,,,,,,,,,,,,,,,,,,,,,,,,,,,,,,,,,,,,,,,,,,,,,,,,,,,,,,,,,,,,,,,,,,,,,,,,,,,,
mauriello,001,2022-11-21_24h46.54.267,Info_measure_main_exp,2022.2.2,Win32,61.06497313,,,,,,,,,,,,,0,1,1,3,1,masks/mask_004.jpg,,,,,,,,,,,,,,,,,,,,,,,,,,,,,,,,,,,,,,,,,,,,,,,,,,,,,,,,,,,,,,,,,,,,,,,,,,,,,,,,,,,,,,,,,,,,,
mauriello,001,2022-11-21_24h46.54.267,Info_measure_main_exp,2022.2.2,Win32,61.06497313,,,,,,,,,,,,,0,2,2,4,1,masks/mask_005.jpg,,,,,,,,,,,,,,,,,,,,,,,,,,,,,,,,,,,,,,,,,,,,,,,,,,,,,,,,,,,,,,,,,,,,,,,,,,,,,,,,,,,,,,,,,,,,,
mauriello,001,2022-11-21_24h46.54.267,Info_measure_main_exp,2022.2.2,Win32,61.06497313,,,,,,,,,,,,,0,3,3,2,1,masks/mask_003.jpg,,,,,,,,,,,,,,,,,,,,,,,,,,,,,,,,,,,,,,,,,,,,,,,,,,,,,,,,,,,,,,,,,,,,,,,,,,,,,,,,,,,,,,,,,,,,,
mauriello,001,2022-11-21_24h46.54.267,Info_measure_main_exp,2022.2.2,Win32,61.06497313,,,,,,,,,,,,,0,4,4,1,1,masks/mask_002.jpg,,,,,,,,,,,,,,,,,,,,,,,,,,,,,,,,,,,,,,,,,,,,,,,,,,,,,,,,,,,,,,,,,,,,,,,,,,,,,,,,,,,,,,,,,,,,,
mauriello,001,2022-11-21_24h46.54.267,Info_measure_main_exp,2022.2.2,Win32,61.06497313,,,,,,,,,,,,,,,,,,masks/mask_005.jpg,0,0,0,4,1,,,,,,,,,,,,,,,,,,,,,,,,,,,,,,,,,,,,,,,,,,,,,,,,,,,,,,,,,,,,,,,,,,,,,,,,,,,,,,,,,,,,,,,,
mauriello,001,2022-11-21_24h46.54.267,Info_measure_main_exp,2022.2.2,Win32,61.06497313,,,,,,,,,,,,,,,,,,masks/mask_002.jpg,0,1,1,1,1,,,,,,,,,,,,,,,,,,,,,,,,,,,,,,,,,,,,,,,,,,,,,,,,,,,,,,,,,,,,,,,,,,,,,,,,,,,,,,,,,,,,,,,,
mauriello,001,2022-11-21_24h46.54.267,Info_measure_main_exp,2022.2.2,Win32,61.06497313,,,,,,,,,,,,,,,,,,masks/mask_003.jpg,0,2,2,2,1,,,,,,,,,,,,,,,,,,,,,,,,,,,,,,,,,,,,,,,,,,,,,,,,,,,,,,,,,,,,,,,,,,,,,,,,,,,,,,,,,,,,,,,,
mauriello,001,2022-11-21_24h46.54.267,Info_measure_main_exp,2022.2.2,Win32,61.06497313,,,,,,,,,,,,,,,,,,masks/mask_004.jpg,0,3,3,3,1,,,,,,,,,,,,,,,,,,,,,,,,,,,,,,,,,,,,,,,,,,,,,,,,,,,,,,,,,,,,,,,,,,,,,,,,,,,,,,,,,,,,,,,,
mauriello,001,2022-11-21_24h46.54.267,Info_measure_main_exp,2022.2.2,Win32,61.06497313,,,,,,,,,,,,,,,,,,masks/mask_001.jpg,0,4,4,0,1,,,,,,,,,,,,,,,,,,,,,,,,,,,,,,,,,,,,,,,,,,,,,,,,,,,,,,,,,,,,,,,,,,,,,,,,,,,,,,,,,,,,,,,,
mauriello,001,2022-11-21_24h46.54.267,Info_measure_main_exp,2022.2.2,Win32,61.06497313,,,,,,,,,,,,,,,,,,,,,,,,0.024074074,0.091666667,1,0,0,response1disk,7,47.0405,1,-0.009259259,-0.007407407,1,0,0,center_square,0,0,0,2,1,0,131,5,5,2526,2526,prac_patch/patch0002526.jpg,prac_patch/patch0002526.jpg,,,,,,,,,,,,,,,,,,,,,,,,,,,,,,,,,,,,,,,,,,,,,,,,,,,,,,,,,,,,
mauriello,001,2022-11-21_24h46.54.267,Info_measure_main_exp,2022.2.2,Win32,61.06497313,,,,,,,,,,,,,0,0,0,4,1,masks/mask_005.jpg,,,,,,,,,,,,,,,,,,,,,,,,,,,,,,,,,,,,,,,,,,,,,,,,,,,,,,,,,,,,,,,,,,,,,,,,,,,,,,,,,,,,,,,,,,,,,
mauriello,001,2022-11-21_24h46.54.267,Info_measure_main_exp,2022.2.2,Win32,61.06497313,,,,,,,,,,,,,0,1,1,2,1,masks/mask_003.jpg,,,,,,,,,,,,,,,,,,,,,,,,,,,,,,,,,,,,,,,,,,,,,,,,,,,,,,,,,,,,,,,,,,,,,,,,,,,,,,,,,,,,,,,,,,,,,
mauriello,001,2022-11-21_24h46.54.267,Info_measure_main_exp,2022.2.2,Win32,61.06497313,,,,,,,,,,,,,0,2,2,0,1,masks/mask_001.jpg,,,,,,,,,,,,,,,,,,,,,,,,,,,,,,,,,,,,,,,,,,,,,,,,,,,,,,,,,,,,,,,,,,,,,,,,,,,,,,,,,,,,,,,,,,,,,
mauriello,001,2022-11-21_24h46.54.267,Info_measure_main_exp,2022.2.2,Win32,61.06497313,,,,,,,,,,,,,0,3,3,1,1,masks/mask_002.jpg,,,,,,,,,,,,,,,,,,,,,,,,,,,,,,,,,,,,,,,,,,,,,,,,,,,,,,,,,,,,,,,,,,,,,,,,,,,,,,,,,,,,,,,,,,,,,
mauriello,001,2022-11-21_24h46.54.267,Info_measure_main_exp,2022.2.2,Win32,61.06497313,,,,,,,,,,,,,0,4,4,3,1,masks/mask_004.jpg,,,,,,,,,,,,,,,,,,,,,,,,,,,,,,,,,,,,,,,,,,,,,,,,,,,,,,,,,,,,,,,,,,,,,,,,,,,,,,,,,,,,,,,,,,,,,
mauriello,001,2022-11-21_24h46.54.267,Info_measure_main_exp,2022.2.2,Win32,61.06497313,,,,,,,,,,,,,,,,,,masks/mask_001.jpg,0,0,0,0,1,,,,,,,,,,,,,,,,,,,,,,,,,,,,,,,,,,,,,,,,,,,,,,,,,,,,,,,,,,,,,,,,,,,,,,,,,,,,,,,,,,,,,,,,
mauriello,001,2022-11-21_24h46.54.267,Info_measure_main_exp,2022.2.2,Win32,61.06497313,,,,,,,,,,,,,,,,,,masks/mask_003.jpg,0,1,1,2,1,,,,,,,,,,,,,,,,,,,,,,,,,,,,,,,,,,,,,,,,,,,,,,,,,,,,,,,,,,,,,,,,,,,,,,,,,,,,,,,,,,,,,,,,
mauriello,001,2022-11-21_24h46.54.267,Info_measure_main_exp,2022.2.2,Win32,61.06497313,,,,,,,,,,,,,,,,,,masks/mask_005.jpg,0,2,2,4,1,,,,,,,,,,,,,,,,,,,,,,,,,,,,,,,,,,,,,,,,,,,,,,,,,,,,,,,,,,,,,,,,,,,,,,,,,,,,,,,,,,,,,,,,
mauriello,001,2022-11-21_24h46.54.267,Info_measure_main_exp,2022.2.2,Win32,61.06497313,,,,,,,,,,,,,,,,,,masks/mask_002.jpg,0,3,3,1,1,,,,,,,,,,,,,,,,,,,,,,,,,,,,,,,,,,,,,,,,,,,,,,,,,,,,,,,,,,,,,,,,,,,,,,,,,,,,,,,,,,,,,,,,
mauriello,001,2022-11-21_24h46.54.267,Info_measure_main_exp,2022.2.2,Win32,61.06497313,,,,,,,,,,,,,,,,,,masks/mask_004.jpg,0,4,4,3,1,,,,,,,,,,,,,,,,,,,,,,,,,,,,,,,,,,,,,,,,,,,,,,,,,,,,,,,,,,,,,,,,,,,,,,,,,,,,,,,,,,,,,,,,
mauriello,001,2022-11-21_24h46.54.267,Info_measure_main_exp,2022.2.2,Win32,61.06497313,,,,,,,,,,,,,,,,,,,,,,,,0.117592593,0.056481481,1,0,0,response1disk,6,58.6483,1,-0.001851852,-0.002777778,1,0,0,center_square,0,1,1,0,1,0,131,5,5,2370,2406,prac_patch/patch0002370.jpg,prac_patch/patch0002406.jpg,,,,,,,,,,,,,,,,,,,,,,,,,,,,,,,,,,,,,,,,,,,,,,,,,,,,,,,,,,,,
mauriello,001,2022-11-21_24h46.54.267,Info_measure_main_exp,2022.2.2,Win32,61.06497313,,,,,,,,,,,,,0,0,0,3,1,masks/mask_004.jpg,,,,,,,,,,,,,,,,,,,,,,,,,,,,,,,,,,,,,,,,,,,,,,,,,,,,,,,,,,,,,,,,,,,,,,,,,,,,,,,,,,,,,,,,,,,,,
mauriello,001,2022-11-21_24h46.54.267,Info_measure_main_exp,2022.2.2,Win32,61.06497313,,,,,,,,,,,,,0,1,1,1,1,masks/mask_002.jpg,,,,,,,,,,,,,,,,,,,,,,,,,,,,,,,,,,,,,,,,,,,,,,,,,,,,,,,,,,,,,,,,,,,,,,,,,,,,,,,,,,,,,,,,,,,,,
mauriello,001,2022-11-21_24h46.54.267,Info_measure_main_exp,2022.2.2,Win32,61.06497313,,,,,,,,,,,,,0,2,2,0,1,masks/mask_001.jpg,,,,,,,,,,,,,,,,,,,,,,,,,,,,,,,,,,,,,,,,,,,,,,,,,,,,,,,,,,,,,,,,,,,,,,,,,,,,,,,,,,,,,,,,,,,,,
mauriello,001,2022-11-21_24h46.54.267,Info_measure_main_exp,2022.2.2,Win32,61.06497313,,,,,,,,,,,,,0,3,3,2,1,masks/mask_003.jpg,,,,,,,,,,,,,,,,,,,,,,,,,,,,,,,,,,,,,,,,,,,,,,,,,,,,,,,,,,,,,,,,,,,,,,,,,,,,,,,,,,,,,,,,,,,,,
mauriello,001,2022-11-21_24h46.54.267,Info_measure_main_exp,2022.2.2,Win32,61.06497313,,,,,,,,,,,,,0,4,4,4,1,masks/mask_005.jpg,,,,,,,,,,,,,,,,,,,,,,,,,,,,,,,,,,,,,,,,,,,,,,,,,,,,,,,,,,,,,,,,,,,,,,,,,,,,,,,,,,,,,,,,,,,,,
mauriello,001,2022-11-21_24h46.54.267,Info_measure_main_exp,2022.2.2,Win32,61.06497313,,,,,,,,,,,,,,,,,,masks/mask_005.jpg,0,0,0,4,1,,,,,,,,,,,,,,,,,,,,,,,,,,,,,,,,,,,,,,,,,,,,,,,,,,,,,,,,,,,,,,,,,,,,,,,,,,,,,,,,,,,,,,,,
mauriello,001,2022-11-21_24h46.54.267,Info_measure_main_exp,2022.2.2,Win32,61.06497313,,,,,,,,,,,,,,,,,,masks/mask_001.jpg,0,1,1,0,1,,,,,,,,,,,,,,,,,,,,,,,,,,,,,,,,,,,,,,,,,,,,,,,,,,,,,,,,,,,,,,,,,,,,,,,,,,,,,,,,,,,,,,,,
mauriello,001,2022-11-21_24h46.54.267,Info_measure_main_exp,2022.2.2,Win32,61.06497313,,,,,,,,,,,,,,,,,,masks/mask_002.jpg,0,2,2,1,1,,,,,,,,,,,,,,,,,,,,,,,,,,,,,,,,,,,,,,,,,,,,,,,,,,,,,,,,,,,,,,,,,,,,,,,,,,,,,,,,,,,,,,,,
mauriello,001,2022-11-21_24h46.54.267,Info_measure_main_exp,2022.2.2,Win32,61.06497313,,,,,,,,,,,,,,,,,,masks/mask_003.jpg,0,3,3,2,1,,,,,,,,,,,,,,,,,,,,,,,,,,,,,,,,,,,,,,,,,,,,,,,,,,,,,,,,,,,,,,,,,,,,,,,,,,,,,,,,,,,,,,,,
mauriello,001,2022-11-21_24h46.54.267,Info_measure_main_exp,2022.2.2,Win32,61.06497313,,,,,,,,,,,,,,,,,,masks/mask_004.jpg,0,4,4,3,1,,,,,,,,,,,,,,,,,,,,,,,,,,,,,,,,,,,,,,,,,,,,,,,,,,,,,,,,,,,,,,,,,,,,,,,,,,,,,,,,,,,,,,,,
mauriello,001,2022-11-21_24h46.54.267,Info_measure_main_exp,2022.2.2,Win32,61.06497313,,,,,,,,,,,,,,,,,,,,,,,,-0.031481481,-0.136111111,1,0,0,response5disk,3,67.3234,1,-0.015740741,0.006481481,1,0,0,center_square,0,2,2,1,1,0,131,5,5,2514,2490,prac_patch/patch0002514.jpg,prac_patch/patch0002490.jpg,,,,,,,,,,,,,,,,,,,,,,,,,,,,,,,,,,,,,,,,,,,,,,,,,,,,,,,,,,,,
mauriello,001,2022-11-21_24h46.54.267,Info_measure_main_exp,2022.2.2,Win32,61.06497313,,,,,,,,,,,,,,,,,,,,,,,,,,,,,,,,,,,,,,,,,,,,,,,,,,,,,,,,,,,space,1.0785,,,,,,,,,,,,,,,,,,,,,,,,,,,,,,,,,,,,,,,,,,,,,,,,,,,
mauriello,001,2022-11-21_24h46.54.267,Info_measure_main_exp,2022.2.2,Win32,61.06497313,,,,,,,,,,,,,,,,,,masks/mask_003.jpg,,,,,,,,,,,,,,,,,,,,,,,,,,,,,,,,,,,,,,,,,,,0,0,0,2,1,,,,,,,,,,,,,,,,,,,,,,,,,,,,,,,,,,,,,,,,,,,,,,
mauriello,001,2022-11-21_24h46.54.267,Info_measure_main_exp,2022.2.2,Win32,61.06497313,,,,,,,,,,,,,,,,,,masks/mask_002.jpg,,,,,,,,,,,,,,,,,,,,,,,,,,,,,,,,,,,,,,,,,,,0,1,1,1,1,,,,,,,,,,,,,,,,,,,,,,,,,,,,,,,,,,,,,,,,,,,,,,
mauriello,001,2022-11-21_24h46.54.267,Info_measure_main_exp,2022.2.2,Win32,61.06497313,,,,,,,,,,,,,,,,,,masks/mask_004.jpg,,,,,,,,,,,,,,,,,,,,,,,,,,,,,,,,,,,,,,,,,,,0,2,2,3,1,,,,,,,,,,,,,,,,,,,,,,,,,,,,,,,,,,,,,,,,,,,,,,
mauriello,001,2022-11-21_24h46.54.267,Info_measure_main_exp,2022.2.2,Win32,61.06497313,,,,,,,,,,,,,,,,,,masks/mask_001.jpg,,,,,,,,,,,,,,,,,,,,,,,,,,,,,,,,,,,,,,,,,,,0,3,3,0,1,,,,,,,,,,,,,,,,,,,,,,,,,,,,,,,,,,,,,,,,,,,,,,
mauriello,001,2022-11-21_24h46.54.267,Info_measure_main_exp,2022.2.2,Win32,61.06497313,,,,,,,,,,,,,,,,,,masks/mask_005.jpg,,,,,,,,,,,,,,,,,,,,,,,,,,,,,,,,,,,,,,,,,,,0,4,4,4,1,,,,,,,,,,,,,,,,,,,,,,,,,,,,,,,,,,,,,,,,,,,,,,
mauriello,001,2022-11-21_24h46.54.267,Info_measure_main_exp,2022.2.2,Win32,61.06497313,,,,,,,,,,,,,,,,,,masks/mask_004.jpg,,,,,,,,,,,,,,,,,,,,,,,,,,,,,,,,,,,,,,,,,,,,,,,,0,0,0,3,1,,,,,,,,,,,,,,,,,,,,,,,,,,,,,,,,,,,,,,,,,
mauriello,001,2022-11-21_24h46.54.267,Info_measure_main_exp,2022.2.2,Win32,61.06497313,,,,,,,,,,,,,,,,,,masks/mask_005.jpg,,,,,,,,,,,,,,,,,,,,,,,,,,,,,,,,,,,,,,,,,,,,,,,,0,1,1,4,1,,,,,,,,,,,,,,,,,,,,,,,,,,,,,,,,,,,,,,,,,
mauriello,001,2022-11-21_24h46.54.267,Info_measure_main_exp,2022.2.2,Win32,61.06497313,,,,,,,,,,,,,,,,,,masks/mask_003.jpg,,,,,,,,,,,,,,,,,,,,,,,,,,,,,,,,,,,,,,,,,,,,,,,,0,2,2,2,1,,,,,,,,,,,,,,,,,,,,,,,,,,,,,,,,,,,,,,,,,
mauriello,001,2022-11-21_24h46.54.267,Info_measure_main_exp,2022.2.2,Win32,61.06497313,,,,,,,,,,,,,,,,,,masks/mask_002.jpg,,,,,,,,,,,,,,,,,,,,,,,,,,,,,,,,,,,,,,,,,,,,,,,,0,3,3,1,1,,,,,,,,,,,,,,,,,,,,,,,,,,,,,,,,,,,,,,,,,
mauriello,001,2022-11-21_24h46.54.267,Info_measure_main_exp,2022.2.2,Win32,61.06497313,,,,,,,,,,,,,,,,,,masks/mask_001.jpg,,,,,,,,,,,,,,,,,,,,,,,,,,,,,,,,,,,,,,,,,,,,,,,,0,4,4,0,1,,,,,,,,,,,,,,,,,,,,,,,,,,,,,,,,,,,,,,,,,
mauriello,001,2022-11-21_24h46.54.267,Info_measure_main_exp,2022.2.2,Win32,61.06497313,,,,,,,,,,,,,,,,,,,,,,,,,,,,,,7,1.0339,1,,,,,,,,,,,,0,131,5,5,2274,2082,absent_patch/patch0002274.jpg,absent_patch/patch0002082.jpg,,,,,,,,,,,,,,,,,,,,0.026851852,0.157407407,1,0,0,response1disk,1,-0.000925926,0.008333333,1,0,0,center_square,0,0,0,100,1,,,,,,,,,,,,,,,,,,,,,,,
mauriello,001,2022-11-21_24h46.54.267,Info_measure_main_exp,2022.2.2,Win32,61.06497313,,,,,,,,,,,,,,,,,,masks/mask_002.jpg,,,,,,,,,,,,,,,,,,,,,,,,,,,,,,,,,,,,,,,,,,,0,0,0,1,1,,,,,,,,,,,,,,,,,,,,,,,,,,,,,,,,,,,,,,,,,,,,,,
mauriello,001,2022-11-21_24h46.54.267,Info_measure_main_exp,2022.2.2,Win32,61.06497313,,,,,,,,,,,,,,,,,,masks/mask_001.jpg,,,,,,,,,,,,,,,,,,,,,,,,,,,,,,,,,,,,,,,,,,,0,1,1,0,1,,,,,,,,,,,,,,,,,,,,,,,,,,,,,,,,,,,,,,,,,,,,,,
mauriello,001,2022-11-21_24h46.54.267,Info_measure_main_exp,2022.2.2,Win32,61.06497313,,,,,,,,,,,,,,,,,,masks/mask_005.jpg,,,,,,,,,,,,,,,,,,,,,,,,,,,,,,,,,,,,,,,,,,,0,2,2,4,1,,,,,,,,,,,,,,,,,,,,,,,,,,,,,,,,,,,,,,,,,,,,,,
mauriello,001,2022-11-21_24h46.54.267,Info_measure_main_exp,2022.2.2,Win32,61.06497313,,,,,,,,,,,,,,,,,,masks/mask_003.jpg,,,,,,,,,,,,,,,,,,,,,,,,,,,,,,,,,,,,,,,,,,,0,3,3,2,1,,,,,,,,,,,,,,,,,,,,,,,,,,,,,,,,,,,,,,,,,,,,,,
mauriello,001,2022-11-21_24h46.54.267,Info_measure_main_exp,2022.2.2,Win32,61.06497313,,,,,,,,,,,,,,,,,,masks/mask_004.jpg,,,,,,,,,,,,,,,,,,,,,,,,,,,,,,,,,,,,,,,,,,,0,4,4,3,1,,,,,,,,,,,,,,,,,,,,,,,,,,,,,,,,,,,,,,,,,,,,,,
mauriello,001,2022-11-21_24h46.54.267,Info_measure_main_exp,2022.2.2,Win32,61.06497313,,,,,,,,,,,,,,,,,,masks/mask_003.jpg,,,,,,,,,,,,,,,,,,,,,,,,,,,,,,,,,,,,,,,,,,,,,,,,0,0,0,2,1,,,,,,,,,,,,,,,,,,,,,,,,,,,,,,,,,,,,,,,,,
mauriello,001,2022-11-21_24h46.54.267,Info_measure_main_exp,2022.2.2,Win32,61.06497313,,,,,,,,,,,,,,,,,,masks/mask_001.jpg,,,,,,,,,,,,,,,,,,,,,,,,,,,,,,,,,,,,,,,,,,,,,,,,0,1,1,0,1,,,,,,,,,,,,,,,,,,,,,,,,,,,,,,,,,,,,,,,,,
mauriello,001,2022-11-21_24h46.54.267,Info_measure_main_exp,2022.2.2,Win32,61.06497313,,,,,,,,,,,,,,,,,,masks/mask_005.jpg,,,,,,,,,,,,,,,,,,,,,,,,,,,,,,,,,,,,,,,,,,,,,,,,0,2,2,4,1,,,,,,,,,,,,,,,,,,,,,,,,,,,,,,,,,,,,,,,,,
mauriello,001,2022-11-21_24h46.54.267,Info_measure_main_exp,2022.2.2,Win32,61.06497313,,,,,,,,,,,,,,,,,,masks/mask_002.jpg,,,,,,,,,,,,,,,,,,,,,,,,,,,,,,,,,,,,,,,,,,,,,,,,0,3,3,1,1,,,,,,,,,,,,,,,,,,,,,,,,,,,,,,,,,,,,,,,,,
mauriello,001,2022-11-21_24h46.54.267,Info_measure_main_exp,2022.2.2,Win32,61.06497313,,,,,,,,,,,,,,,,,,masks/mask_004.jpg,,,,,,,,,,,,,,,,,,,,,,,,,,,,,,,,,,,,,,,,,,,,,,,,0,4,4,3,1,,,,,,,,,,,,,,,,,,,,,,,,,,,,,,,,,,,,,,,,,
mauriello,001,2022-11-21_24h46.54.267,Info_measure_main_exp,2022.2.2,Win32,61.06497313,,,,,,,,,,,,,,,,,,,,,,,,,,,,,,6,1.366,1,,,,,,,,,,,,1,131,5,5,2250,1,absent_patch/patch0002250.jpg,present_patch/cong_131_5_a.jpg,,,,,,,,,,,,,,,,,,,,0.111111111,0.04537037,1,0,0,response1disk,2,0.000925926,-0.001851852,1,0,0,center_square,0,1,1,5,1,,,,,,,,,,,,,,,,,,,,,,,
mauriello,001,2022-11-21_24h46.54.267,Info_measure_main_exp,2022.2.2,Win32,61.06497313,,,,,,,,,,,,,,,,,,masks/mask_005.jpg,,,,,,,,,,,,,,,,,,,,,,,,,,,,,,,,,,,,,,,,,,,0,0,0,4,1,,,,,,,,,,,,,,,,,,,,,,,,,,,,,,,,,,,,,,,,,,,,,,
mauriello,001,2022-11-21_24h46.54.267,Info_measure_main_exp,2022.2.2,Win32,61.06497313,,,,,,,,,,,,,,,,,,masks/mask_003.jpg,,,,,,,,,,,,,,,,,,,,,,,,,,,,,,,,,,,,,,,,,,,0,1,1,2,1,,,,,,,,,,,,,,,,,,,,,,,,,,,,,,,,,,,,,,,,,,,,,,
mauriello,001,2022-11-21_24h46.54.267,Info_measure_main_exp,2022.2.2,Win32,61.06497313,,,,,,,,,,,,,,,,,,masks/mask_002.jpg,,,,,,,,,,,,,,,,,,,,,,,,,,,,,,,,,,,,,,,,,,,0,2,2,1,1,,,,,,,,,,,,,,,,,,,,,,,,,,,,,,,,,,,,,,,,,,,,,,
mauriello,001,2022-11-21_24h46.54.267,Info_measure_main_exp,2022.2.2,Win32,61.06497313,,,,,,,,,,,,,,,,,,masks/mask_001.jpg,,,,,,,,,,,,,,,,,,,,,,,,,,,,,,,,,,,,,,,,,,,0,3,3,0,1,,,,,,,,,,,,,,,,,,,,,,,,,,,,,,,,,,,,,,,,,,,,,,
mauriello,001,2022-11-21_24h46.54.267,Info_measure_main_exp,2022.2.2,Win32,61.06497313,,,,,,,,,,,,,,,,,,masks/mask_004.jpg,,,,,,,,,,,,,,,,,,,,,,,,,,,,,,,,,,,,,,,,,,,0,4,4,3,1,,,,,,,,,,,,,,,,,,,,,,,,,,,,,,,,,,,,,,,,,,,,,,
mauriello,001,2022-11-21_24h46.54.267,Info_measure_main_exp,2022.2.2,Win32,61.06497313,,,,,,,,,,,,,,,,,,masks/mask_004.jpg,,,,,,,,,,,,,,,,,,,,,,,,,,,,,,,,,,,,,,,,,,,,,,,,0,0,0,3,1,,,,,,,,,,,,,,,,,,,,,,,,,,,,,,,,,,,,,,,,,
mauriello,001,2022-11-21_24h46.54.267,Info_measure_main_exp,2022.2.2,Win32,61.06497313,,,,,,,,,,,,,,,,,,masks/mask_003.jpg,,,,,,,,,,,,,,,,,,,,,,,,,,,,,,,,,,,,,,,,,,,,,,,,0,1,1,2,1,,,,,,,,,,,,,,,,,,,,,,,,,,,,,,,,,,,,,,,,,
mauriello,001,2022-11-21_24h46.54.267,Info_measure_main_exp,2022.2.2,Win32,61.06497313,,,,,,,,,,,,,,,,,,masks/mask_001.jpg,,,,,,,,,,,,,,,,,,,,,,,,,,,,,,,,,,,,,,,,,,,,,,,,0,2,2,0,1,,,,,,,,,,,,,,,,,,,,,,,,,,,,,,,,,,,,,,,,,
mauriello,001,2022-11-21_24h46.54.267,Info_measure_main_exp,2022.2.2,Win32,61.06497313,,,,,,,,,,,,,,,,,,masks/mask_005.jpg,,,,,,,,,,,,,,,,,,,,,,,,,,,,,,,,,,,,,,,,,,,,,,,,0,3,3,4,1,,,,,,,,,,,,,,,,,,,,,,,,,,,,,,,,,,,,,,,,,
mauriello,001,2022-11-21_24h46.54.267,Info_measure_main_exp,2022.2.2,Win32,61.06497313,,,,,,,,,,,,,,,,,,masks/mask_002.jpg,,,,,,,,,,,,,,,,,,,,,,,,,,,,,,,,,,,,,,,,,,,,,,,,0,4,4,1,1,,,,,,,,,,,,,,,,,,,,,,,,,,,,,,,,,,,,,,,,,
mauriello,001,2022-11-21_24h46.54.267,Info_measure_main_exp,2022.2.2,Win32,61.06497313,,,,,,,,,,,,,,,,,,,,,,,,,,,,,,0,0.9902,1,,,,,,,,,,,,0,131,5,5,2274,2274,absent_patch/patch0002274.jpg,absent_patch/patch0002274.jpg,,,,,,,,,,,,,,,,,,,,-0.053703704,0.187962963,1,0,0,response7disk,3,0.002777778,-0.001851852,1,0,0,center_square,0,2,2,114,1,,,,,,,,,,,,,,,,,,,,,,,
mauriello,001,2022-11-21_24h46.54.267,Info_measure_main_exp,2022.2.2,Win32,61.06497313,,,,,,,,,,,,,,,,,,masks/mask_005.jpg,,,,,,,,,,,,,,,,,,,,,,,,,,,,,,,,,,,,,,,,,,,0,0,0,4,1,,,,,,,,,,,,,,,,,,,,,,,,,,,,,,,,,,,,,,,,,,,,,,
mauriello,001,2022-11-21_24h46.54.267,Info_measure_main_exp,2022.2.2,Win32,61.06497313,,,,,,,,,,,,,,,,,,masks/mask_001.jpg,,,,,,,,,,,,,,,,,,,,,,,,,,,,,,,,,,,,,,,,,,,0,1,1,0,1,,,,,,,,,,,,,,,,,,,,,,,,,,,,,,,,,,,,,,,,,,,,,,
mauriello,001,2022-11-21_24h46.54.267,Info_measure_main_exp,2022.2.2,Win32,61.06497313,,,,,,,,,,,,,,,,,,masks/mask_003.jpg,,,,,,,,,,,,,,,,,,,,,,,,,,,,,,,,,,,,,,,,,,,0,2,2,2,1,,,,,,,,,,,,,,,,,,,,,,,,,,,,,,,,,,,,,,,,,,,,,,
mauriello,001,2022-11-21_24h46.54.267,Info_measure_main_exp,2022.2.2,Win32,61.06497313,,,,,,,,,,,,,,,,,,masks/mask_002.jpg,,,,,,,,,,,,,,,,,,,,,,,,,,,,,,,,,,,,,,,,,,,0,3,3,1,1,,,,,,,,,,,,,,,,,,,,,,,,,,,,,,,,,,,,,,,,,,,,,,
mauriello,001,2022-11-21_24h46.54.267,Info_measure_main_exp,2022.2.2,Win32,61.06497313,,,,,,,,,,,,,,,,,,masks/mask_004.jpg,,,,,,,,,,,,,,,,,,,,,,,,,,,,,,,,,,,,,,,,,,,0,4,4,3,1,,,,,,,,,,,,,,,,,,,,,,,,,,,,,,,,,,,,,,,,,,,,,,
mauriello,001,2022-11-21_24h46.54.267,Info_measure_main_exp,2022.2.2,Win32,61.06497313,,,,,,,,,,,,,,,,,,masks/mask_002.jpg,,,,,,,,,,,,,,,,,,,,,,,,,,,,,,,,,,,,,,,,,,,,,,,,0,0,0,1,1,,,,,,,,,,,,,,,,,,,,,,,,,,,,,,,,,,,,,,,,,
mauriello,001,2022-11-21_24h46.54.267,Info_measure_main_exp,2022.2.2,Win32,61.06497313,,,,,,,,,,,,,,,,,,masks/mask_004.jpg,,,,,,,,,,,,,,,,,,,,,,,,,,,,,,,,,,,,,,,,,,,,,,,,0,1,1,3,1,,,,,,,,,,,,,,,,,,,,,,,,,,,,,,,,,,,,,,,,,
mauriello,001,2022-11-21_24h46.54.267,Info_measure_main_exp,2022.2.2,Win32,61.06497313,,,,,,,,,,,,,,,,,,masks/mask_005.jpg,,,,,,,,,,,,,,,,,,,,,,,,,,,,,,,,,,,,,,,,,,,,,,,,0,2,2,4,1,,,,,,,,,,,,,,,,,,,,,,,,,,,,,,,,,,,,,,,,,
mauriello,001,2022-11-21_24h46.54.267,Info_measure_main_exp,2022.2.2,Win32,61.06497313,,,,,,,,,,,,,,,,,,masks/mask_003.jpg,,,,,,,,,,,,,,,,,,,,,,,,,,,,,,,,,,,,,,,,,,,,,,,,0,3,3,2,1,,,,,,,,,,,,,,,,,,,,,,,,,,,,,,,,,,,,,,,,,
mauriello,001,2022-11-21_24h46.54.267,Info_measure_main_exp,2022.2.2,Win32,61.06497313,,,,,,,,,,,,,,,,,,masks/mask_001.jpg,,,,,,,,,,,,,,,,,,,,,,,,,,,,,,,,,,,,,,,,,,,,,,,,0,4,4,0,1,,,,,,,,,,,,,,,,,,,,,,,,,,,,,,,,,,,,,,,,,
mauriello,001,2022-11-21_24h46.54.267,Info_measure_main_exp,2022.2.2,Win32,61.06497313,,,,,,,,,,,,,,,,,,,,,,,,,,,,,,6,1.566,1,,,,,,,,,,,,0,131,5,5,2142,2190,absent_patch/patch0002142.jpg,absent_patch/patch0002190.jpg,,,,,,,,,,,,,,,,,,,,0.083333333,0.066666667,1,0,0,response1disk,4,0,-0.00462963,1,0,0,center_square,0,3,3,70,1,,,,,,,,,,,,,,,,,,,,,,,
mauriello,001,2022-11-21_24h46.54.267,Info_measure_main_exp,2022.2.2,Win32,61.06497313,,,,,,,,,,,,,,,,,,masks/mask_002.jpg,,,,,,,,,,,,,,,,,,,,,,,,,,,,,,,,,,,,,,,,,,,0,0,0,1,1,,,,,,,,,,,,,,,,,,,,,,,,,,,,,,,,,,,,,,,,,,,,,,
mauriello,001,2022-11-21_24h46.54.267,Info_measure_main_exp,2022.2.2,Win32,61.06497313,,,,,,,,,,,,,,,,,,masks/mask_004.jpg,,,,,,,,,,,,,,,,,,,,,,,,,,,,,,,,,,,,,,,,,,,0,1,1,3,1,,,,,,,,,,,,,,,,,,,,,,,,,,,,,,,,,,,,,,,,,,,,,,
mauriello,001,2022-11-21_24h46.54.267,Info_measure_main_exp,2022.2.2,Win32,61.06497313,,,,,,,,,,,,,,,,,,masks/mask_001.jpg,,,,,,,,,,,,,,,,,,,,,,,,,,,,,,,,,,,,,,,,,,,0,2,2,0,1,,,,,,,,,,,,,,,,,,,,,,,,,,,,,,,,,,,,,,,,,,,,,,
mauriello,001,2022-11-21_24h46.54.267,Info_measure_main_exp,2022.2.2,Win32,61.06497313,,,,,,,,,,,,,,,,,,masks/mask_005.jpg,,,,,,,,,,,,,,,,,,,,,,,,,,,,,,,,,,,,,,,,,,,0,3,3,4,1,,,,,,,,,,,,,,,,,,,,,,,,,,,,,,,,,,,,,,,,,,,,,,
mauriello,001,2022-11-21_24h46.54.267,Info_measure_main_exp,2022.2.2,Win32,61.06497313,,,,,,,,,,,,,,,,,,masks/mask_003.jpg,,,,,,,,,,,,,,,,,,,,,,,,,,,,,,,,,,,,,,,,,,,0,4,4,2,1,,,,,,,,,,,,,,,,,,,,,,,,,,,,,,,,,,,,,,,,,,,,,,
mauriello,001,2022-11-21_24h46.54.267,Info_measure_main_exp,2022.2.2,Win32,61.06497313,,,,,,,,,,,,,,,,,,masks/mask_002.jpg,,,,,,,,,,,,,,,,,,,,,,,,,,,,,,,,,,,,,,,,,,,,,,,,0,0,0,1,1,,,,,,,,,,,,,,,,,,,,,,,,,,,,,,,,,,,,,,,,,
mauriello,001,2022-11-21_24h46.54.267,Info_measure_main_exp,2022.2.2,Win32,61.06497313,,,,,,,,,,,,,,,,,,masks/mask_005.jpg,,,,,,,,,,,,,,,,,,,,,,,,,,,,,,,,,,,,,,,,,,,,,,,,0,1,1,4,1,,,,,,,,,,,,,,,,,,,,,,,,,,,,,,,,,,,,,,,,,
mauriello,001,2022-11-21_24h46.54.267,Info_measure_main_exp,2022.2.2,Win32,61.06497313,,,,,,,,,,,,,,,,,,masks/mask_004.jpg,,,,,,,,,,,,,,,,,,,,,,,,,,,,,,,,,,,,,,,,,,,,,,,,0,2,2,3,1,,,,,,,,,,,,,,,,,,,,,,,,,,,,,,,,,,,,,,,,,
mauriello,001,2022-11-21_24h46.54.267,Info_measure_main_exp,2022.2.2,Win32,61.06497313,,,,,,,,,,,,,,,,,,masks/mask_001.jpg,,,,,,,,,,,,,,,,,,,,,,,,,,,,,,,,,,,,,,,,,,,,,,,,0,3,3,0,1,,,,,,,,,,,,,,,,,,,,,,,,,,,,,,,,,,,,,,,,,
mauriello,001,2022-11-21_24h46.54.267,Info_measure_main_exp,2022.2.2,Win32,61.06497313,,,,,,,,,,,,,,,,,,masks/mask_003.jpg,,,,,,,,,,,,,,,,,,,,,,,,,,,,,,,,,,,,,,,,,,,,,,,,0,4,4,2,1,,,,,,,,,,,,,,,,,,,,,,,,,,,,,,,,,,,,,,,,,
mauriello,001,2022-11-21_24h46.54.267,Info_measure_main_exp,2022.2.2,Win32,61.06497313,,,,,,,,,,,,,,,,,,,,,,,,,,,,,,5,1.2994,1,,,,,,,,,,,,0,131,5,5,2082,2298,absent_patch/patch0002082.jpg,absent_patch/patch0002298.jpg,,,,,,,,,,,,,,,,,,,,0.091666667,-0.021296296,1,0,0,response3disk,5,0.010185185,-0.003703704,1,0,0,center_square,0,4,4,107,1,,,,,,,,,,,,,,,,,,,,,,,
mauriello,001,2022-11-21_24h46.54.267,Info_measure_main_exp,2022.2.2,Win32,61.06497313,,,,,,,,,,,,,,,,,,masks/mask_004.jpg,,,,,,,,,,,,,,,,,,,,,,,,,,,,,,,,,,,,,,,,,,,0,0,0,3,1,,,,,,,,,,,,,,,,,,,,,,,,,,,,,,,,,,,,,,,,,,,,,,
mauriello,001,2022-11-21_24h46.54.267,Info_measure_main_exp,2022.2.2,Win32,61.06497313,,,,,,,,,,,,,,,,,,masks/mask_001.jpg,,,,,,,,,,,,,,,,,,,,,,,,,,,,,,,,,,,,,,,,,,,0,1,1,0,1,,,,,,,,,,,,,,,,,,,,,,,,,,,,,,,,,,,,,,,,,,,,,,
mauriello,001,2022-11-21_24h46.54.267,Info_measure_main_exp,2022.2.2,Win32,61.06497313,,,,,,,,,,,,,,,,,,masks/mask_002.jpg,,,,,,,,,,,,,,,,,,,,,,,,,,,,,,,,,,,,,,,,,,,0,2,2,1,1,,,,,,,,,,,,,,,,,,,,,,,,,,,,,,,,,,,,,,,,,,,,,,
mauriello,001,2022-11-21_24h46.54.267,Info_measure_main_exp,2022.2.2,Win32,61.06497313,,,,,,,,,,,,,,,,,,masks/mask_005.jpg,,,,,,,,,,,,,,,,,,,,,,,,,,,,,,,,,,,,,,,,,,,0,3,3,4,1,,,,,,,,,,,,,,,,,,,,,,,,,,,,,,,,,,,,,,,,,,,,,,
mauriello,001,2022-11-21_24h46.54.267,Info_measure_main_exp,2022.2.2,Win32,61.06497313,,,,,,,,,,,,,,,,,,masks/mask_003.jpg,,,,,,,,,,,,,,,,,,,,,,,,,,,,,,,,,,,,,,,,,,,0,4,4,2,1,,,,,,,,,,,,,,,,,,,,,,,,,,,,,,,,,,,,,,,,,,,,,,
mauriello,001,2022-11-21_24h46.54.267,Info_measure_main_exp,2022.2.2,Win32,61.06497313,,,,,,,,,,,,,,,,,,masks/mask_003.jpg,,,,,,,,,,,,,,,,,,,,,,,,,,,,,,,,,,,,,,,,,,,,,,,,0,0,0,2,1,,,,,,,,,,,,,,,,,,,,,,,,,,,,,,,,,,,,,,,,,
mauriello,001,2022-11-21_24h46.54.267,Info_measure_main_exp,2022.2.2,Win32,61.06497313,,,,,,,,,,,,,,,,,,masks/mask_005.jpg,,,,,,,,,,,,,,,,,,,,,,,,,,,,,,,,,,,,,,,,,,,,,,,,0,1,1,4,1,,,,,,,,,,,,,,,,,,,,,,,,,,,,,,,,,,,,,,,,,
mauriello,001,2022-11-21_24h46.54.267,Info_measure_main_exp,2022.2.2,Win32,61.06497313,,,,,,,,,,,,,,,,,,masks/mask_004.jpg,,,,,,,,,,,,,,,,,,,,,,,,,,,,,,,,,,,,,,,,,,,,,,,,0,2,2,3,1,,,,,,,,,,,,,,,,,,,,,,,,,,,,,,,,,,,,,,,,,
mauriello,001,2022-11-21_24h46.54.267,Info_measure_main_exp,2022.2.2,Win32,61.06497313,,,,,,,,,,,,,,,,,,masks/mask_002.jpg,,,,,,,,,,,,,,,,,,,,,,,,,,,,,,,,,,,,,,,,,,,,,,,,0,3,3,1,1,,,,,,,,,,,,,,,,,,,,,,,,,,,,,,,,,,,,,,,,,
mauriello,001,2022-11-21_24h46.54.267,Info_measure_main_exp,2022.2.2,Win32,61.06497313,,,,,,,,,,,,,,,,,,masks/mask_001.jpg,,,,,,,,,,,,,,,,,,,,,,,,,,,,,,,,,,,,,,,,,,,,,,,,0,4,4,0,1,,,,,,,,,,,,,,,,,,,,,,,,,,,,,,,,,,,,,,,,,
mauriello,001,2022-11-21_24h46.54.267,Info_measure_main_exp,2022.2.2,Win32,61.06497313,,,,,,,,,,,,,,,,,,,,,,,,,,,,,,5,1.0325,1,,,,,,,,,,,,0,131,5,5,2298,2142,absent_patch/patch0002298.jpg,absent_patch/patch0002142.jpg,,,,,,,,,,,,,,,,,,,,0.081481481,-0.012037037,1,0,0,response3disk,6,-0.003703704,0,1,0,0,center_square,0,5,5,49,1,,,,,,,,,,,,,,,,,,,,,,,
mauriello,001,2022-11-21_24h46.54.267,Info_measure_main_exp,2022.2.2,Win32,61.06497313,,,,,,,,,,,,,,,,,,masks/mask_002.jpg,,,,,,,,,,,,,,,,,,,,,,,,,,,,,,,,,,,,,,,,,,,0,0,0,1,1,,,,,,,,,,,,,,,,,,,,,,,,,,,,,,,,,,,,,,,,,,,,,,
mauriello,001,2022-11-21_24h46.54.267,Info_measure_main_exp,2022.2.2,Win32,61.06497313,,,,,,,,,,,,,,,,,,masks/mask_004.jpg,,,,,,,,,,,,,,,,,,,,,,,,,,,,,,,,,,,,,,,,,,,0,1,1,3,1,,,,,,,,,,,,,,,,,,,,,,,,,,,,,,,,,,,,,,,,,,,,,,
mauriello,001,2022-11-21_24h46.54.267,Info_measure_main_exp,2022.2.2,Win32,61.06497313,,,,,,,,,,,,,,,,,,masks/mask_003.jpg,,,,,,,,,,,,,,,,,,,,,,,,,,,,,,,,,,,,,,,,,,,0,2,2,2,1,,,,,,,,,,,,,,,,,,,,,,,,,,,,,,,,,,,,,,,,,,,,,,
mauriello,001,2022-11-21_24h46.54.267,Info_measure_main_exp,2022.2.2,Win32,61.06497313,,,,,,,,,,,,,,,,,,masks/mask_005.jpg,,,,,,,,,,,,,,,,,,,,,,,,,,,,,,,,,,,,,,,,,,,0,3,3,4,1,,,,,,,,,,,,,,,,,,,,,,,,,,,,,,,,,,,,,,,,,,,,,,
mauriello,001,2022-11-21_24h46.54.267,Info_measure_main_exp,2022.2.2,Win32,61.06497313,,,,,,,,,,,,,,,,,,masks/mask_001.jpg,,,,,,,,,,,,,,,,,,,,,,,,,,,,,,,,,,,,,,,,,,,0,4,4,0,1,,,,,,,,,,,,,,,,,,,,,,,,,,,,,,,,,,,,,,,,,,,,,,
mauriello,001,2022-11-21_24h46.54.267,Info_measure_main_exp,2022.2.2,Win32,61.06497313,,,,,,,,,,,,,,,,,,masks/mask_004.jpg,,,,,,,,,,,,,,,,,,,,,,,,,,,,,,,,,,,,,,,,,,,,,,,,0,0,0,3,1,,,,,,,,,,,,,,,,,,,,,,,,,,,,,,,,,,,,,,,,,
mauriello,001,2022-11-21_24h46.54.267,Info_measure_main_exp,2022.2.2,Win32,61.06497313,,,,,,,,,,,,,,,,,,masks/mask_001.jpg,,,,,,,,,,,,,,,,,,,,,,,,,,,,,,,,,,,,,,,,,,,,,,,,0,1,1,0,1,,,,,,,,,,,,,,,,,,,,,,,,,,,,,,,,,,,,,,,,,
mauriello,001,2022-11-21_24h46.54.267,Info_measure_main_exp,2022.2.2,Win32,61.06497313,,,,,,,,,,,,,,,,,,masks/mask_002.jpg,,,,,,,,,,,,,,,,,,,,,,,,,,,,,,,,,,,,,,,,,,,,,,,,0,2,2,1,1,,,,,,,,,,,,,,,,,,,,,,,,,,,,,,,,,,,,,,,,,
mauriello,001,2022-11-21_24h46.54.267,Info_measure_main_exp,2022.2.2,Win32,61.06497313,,,,,,,,,,,,,,,,,,masks/mask_003.jpg,,,,,,,,,,,,,,,,,,,,,,,,,,,,,,,,,,,,,,,,,,,,,,,,0,3,3,2,1,,,,,,,,,,,,,,,,,,,,,,,,,,,,,,,,,,,,,,,,,
mauriello,001,2022-11-21_24h46.54.267,Info_measure_main_exp,2022.2.2,Win32,61.06497313,,,,,,,,,,,,,,,,,,masks/mask_005.jpg,,,,,,,,,,,,,,,,,,,,,,,,,,,,,,,,,,,,,,,,,,,,,,,,0,4,4,4,1,,,,,,,,,,,,,,,,,,,,,,,,,,,,,,,,,,,,,,,,,
mauriello,001,2022-11-21_24h46.54.267,Info_measure_main_exp,2022.2.2,Win32,61.06497313,,,,,,,,,,,,,,,,,,,,,,,,,,,,,,5,3.099,1,,,,,,,,,,,,0,131,5,5,2166,1986,absent_patch/patch0002166.jpg,absent_patch/patch0001986.jpg,,,,,,,,,,,,,,,,,,,,0.071296296,-0.035185185,1,0,0,response3disk,7,-0.011111111,0.001851852,1,0,0,center_square,0,6,6,47,1,,,,,,,,,,,,,,,,,,,,,,,
mauriello,001,2022-11-21_24h46.54.267,Info_measure_main_exp,2022.2.2,Win32,61.06497313,,,,,,,,,,,,,,,,,,masks/mask_001.jpg,,,,,,,,,,,,,,,,,,,,,,,,,,,,,,,,,,,,,,,,,,,0,0,0,0,1,,,,,,,,,,,,,,,,,,,,,,,,,,,,,,,,,,,,,,,,,,,,,,
mauriello,001,2022-11-21_24h46.54.267,Info_measure_main_exp,2022.2.2,Win32,61.06497313,,,,,,,,,,,,,,,,,,masks/mask_005.jpg,,,,,,,,,,,,,,,,,,,,,,,,,,,,,,,,,,,,,,,,,,,0,1,1,4,1,,,,,,,,,,,,,,,,,,,,,,,,,,,,,,,,,,,,,,,,,,,,,,
mauriello,001,2022-11-21_24h46.54.267,Info_measure_main_exp,2022.2.2,Win32,61.06497313,,,,,,,,,,,,,,,,,,masks/mask_003.jpg,,,,,,,,,,,,,,,,,,,,,,,,,,,,,,,,,,,,,,,,,,,0,2,2,2,1,,,,,,,,,,,,,,,,,,,,,,,,,,,,,,,,,,,,,,,,,,,,,,
mauriello,001,2022-11-21_24h46.54.267,Info_measure_main_exp,2022.2.2,Win32,61.06497313,,,,,,,,,,,,,,,,,,masks/mask_002.jpg,,,,,,,,,,,,,,,,,,,,,,,,,,,,,,,,,,,,,,,,,,,0,3,3,1,1,,,,,,,,,,,,,,,,,,,,,,,,,,,,,,,,,,,,,,,,,,,,,,
mauriello,001,2022-11-21_24h46.54.267,Info_measure_main_exp,2022.2.2,Win32,61.06497313,,,,,,,,,,,,,,,,,,masks/mask_004.jpg,,,,,,,,,,,,,,,,,,,,,,,,,,,,,,,,,,,,,,,,,,,0,4,4,3,1,,,,,,,,,,,,,,,,,,,,,,,,,,,,,,,,,,,,,,,,,,,,,,
mauriello,001,2022-11-21_24h46.54.267,Info_measure_main_exp,2022.2.2,Win32,61.06497313,,,,,,,,,,,,,,,,,,masks/mask_002.jpg,,,,,,,,,,,,,,,,,,,,,,,,,,,,,,,,,,,,,,,,,,,,,,,,0,0,0,1,1,,,,,,,,,,,,,,,,,,,,,,,,,,,,,,,,,,,,,,,,,
mauriello,001,2022-11-21_24h46.54.267,Info_measure_main_exp,2022.2.2,Win32,61.06497313,,,,,,,,,,,,,,,,,,masks/mask_005.jpg,,,,,,,,,,,,,,,,,,,,,,,,,,,,,,,,,,,,,,,,,,,,,,,,0,1,1,4,1,,,,,,,,,,,,,,,,,,,,,,,,,,,,,,,,,,,,,,,,,
mauriello,001,2022-11-21_24h46.54.267,Info_measure_main_exp,2022.2.2,Win32,61.06497313,,,,,,,,,,,,,,,,,,masks/mask_001.jpg,,,,,,,,,,,,,,,,,,,,,,,,,,,,,,,,,,,,,,,,,,,,,,,,0,2,2,0,1,,,,,,,,,,,,,,,,,,,,,,,,,,,,,,,,,,,,,,,,,
mauriello,001,2022-11-21_24h46.54.267,Info_measure_main_exp,2022.2.2,Win32,61.06497313,,,,,,,,,,,,,,,,,,masks/mask_003.jpg,,,,,,,,,,,,,,,,,,,,,,,,,,,,,,,,,,,,,,,,,,,,,,,,0,3,3,2,1,,,,,,,,,,,,,,,,,,,,,,,,,,,,,,,,,,,,,,,,,
mauriello,001,2022-11-21_24h46.54.267,Info_measure_main_exp,2022.2.2,Win32,61.06497313,,,,,,,,,,,,,,,,,,masks/mask_004.jpg,,,,,,,,,,,,,,,,,,,,,,,,,,,,,,,,,,,,,,,,,,,,,,,,0,4,4,3,1,,,,,,,,,,,,,,,,,,,,,,,,,,,,,,,,,,,,,,,,,
mauriello,001,2022-11-21_24h46.54.267,Info_measure_main_exp,2022.2.2,Win32,61.06497313,,,,,,,,,,,,,,,,,,,,,,,,,,,,,,5,1.3998,1,,,,,,,,,,,,0,131,5,5,2082,1974,absent_patch/patch0002082.jpg,absent_patch/patch0001974.jpg,,,,,,,,,,,,,,,,,,,,0.050925926,-0.02962963,1,0,0,response3disk,8,0.007407407,-0.00462963,1,0,0,center_square,0,7,7,26,1,,,,,,,,,,,,,,,,,,,,,,,
mauriello,001,2022-11-21_24h46.54.267,Info_measure_main_exp,2022.2.2,Win32,61.06497313,,,,,,,,,,,,,,,,,,masks/mask_001.jpg,,,,,,,,,,,,,,,,,,,,,,,,,,,,,,,,,,,,,,,,,,,0,0,0,0,1,,,,,,,,,,,,,,,,,,,,,,,,,,,,,,,,,,,,,,,,,,,,,,
mauriello,001,2022-11-21_24h46.54.267,Info_measure_main_exp,2022.2.2,Win32,61.06497313,,,,,,,,,,,,,,,,,,masks/mask_005.jpg,,,,,,,,,,,,,,,,,,,,,,,,,,,,,,,,,,,,,,,,,,,0,1,1,4,1,,,,,,,,,,,,,,,,,,,,,,,,,,,,,,,,,,,,,,,,,,,,,,
mauriello,001,2022-11-21_24h46.54.267,Info_measure_main_exp,2022.2.2,Win32,61.06497313,,,,,,,,,,,,,,,,,,masks/mask_004.jpg,,,,,,,,,,,,,,,,,,,,,,,,,,,,,,,,,,,,,,,,,,,0,2,2,3,1,,,,,,,,,,,,,,,,,,,,,,,,,,,,,,,,,,,,,,,,,,,,,,
mauriello,001,2022-11-21_24h46.54.267,Info_measure_main_exp,2022.2.2,Win32,61.06497313,,,,,,,,,,,,,,,,,,masks/mask_002.jpg,,,,,,,,,,,,,,,,,,,,,,,,,,,,,,,,,,,,,,,,,,,0,3,3,1,1,,,,,,,,,,,,,,,,,,,,,,,,,,,,,,,,,,,,,,,,,,,,,,
mauriello,001,2022-11-21_24h46.54.267,Info_measure_main_exp,2022.2.2,Win32,61.06497313,,,,,,,,,,,,,,,,,,masks/mask_003.jpg,,,,,,,,,,,,,,,,,,,,,,,,,,,,,,,,,,,,,,,,,,,0,4,4,2,1,,,,,,,,,,,,,,,,,,,,,,,,,,,,,,,,,,,,,,,,,,,,,,
mauriello,001,2022-11-21_24h46.54.267,Info_measure_main_exp,2022.2.2,Win32,61.06497313,,,,,,,,,,,,,,,,,,masks/mask_001.jpg,,,,,,,,,,,,,,,,,,,,,,,,,,,,,,,,,,,,,,,,,,,,,,,,0,0,0,0,1,,,,,,,,,,,,,,,,,,,,,,,,,,,,,,,,,,,,,,,,,
mauriello,001,2022-11-21_24h46.54.267,Info_measure_main_exp,2022.2.2,Win32,61.06497313,,,,,,,,,,,,,,,,,,masks/mask_004.jpg,,,,,,,,,,,,,,,,,,,,,,,,,,,,,,,,,,,,,,,,,,,,,,,,0,1,1,3,1,,,,,,,,,,,,,,,,,,,,,,,,,,,,,,,,,,,,,,,,,
mauriello,001,2022-11-21_24h46.54.267,Info_measure_main_exp,2022.2.2,Win32,61.06497313,,,,,,,,,,,,,,,,,,masks/mask_002.jpg,,,,,,,,,,,,,,,,,,,,,,,,,,,,,,,,,,,,,,,,,,,,,,,,0,2,2,1,1,,,,,,,,,,,,,,,,,,,,,,,,,,,,,,,,,,,,,,,,,
mauriello,001,2022-11-21_24h46.54.267,Info_measure_main_exp,2022.2.2,Win32,61.06497313,,,,,,,,,,,,,,,,,,masks/mask_003.jpg,,,,,,,,,,,,,,,,,,,,,,,,,,,,,,,,,,,,,,,,,,,,,,,,0,3,3,2,1,,,,,,,,,,,,,,,,,,,,,,,,,,,,,,,,,,,,,,,,,
mauriello,001,2022-11-21_24h46.54.267,Info_measure_main_exp,2022.2.2,Win32,61.06497313,,,,,,,,,,,,,,,,,,masks/mask_005.jpg,,,,,,,,,,,,,,,,,,,,,,,,,,,,,,,,,,,,,,,,,,,,,,,,0,4,4,4,1,,,,,,,,,,,,,,,,,,,,,,,,,,,,,,,,,,,,,,,,,
mauriello,001,2022-11-21_24h46.54.267,Info_measure_main_exp,2022.2.2,Win32,61.06497313,,,,,,,,,,,,,,,,,,,,,,,,,,,,,,6,1.4011,1,,,,,,,,,,,,0,131,5,5,2190,2214,absent_patch/patch0002190.jpg,absent_patch/patch0002214.jpg,,,,,,,,,,,,,,,,,,,,0.100925926,0.033333333,1,0,0,response1disk,9,-0.008333333,-0.002777778,1,0,0,center_square,0,8,8,35,1,,,,,,,,,,,,,,,,,,,,,,,
mauriello,001,2022-11-21_24h46.54.267,Info_measure_main_exp,2022.2.2,Win32,61.06497313,,,,,,,,,,,,,,,,,,masks/mask_004.jpg,,,,,,,,,,,,,,,,,,,,,,,,,,,,,,,,,,,,,,,,,,,0,0,0,3,1,,,,,,,,,,,,,,,,,,,,,,,,,,,,,,,,,,,,,,,,,,,,,,
mauriello,001,2022-11-21_24h46.54.267,Info_measure_main_exp,2022.2.2,Win32,61.06497313,,,,,,,,,,,,,,,,,,masks/mask_003.jpg,,,,,,,,,,,,,,,,,,,,,,,,,,,,,,,,,,,,,,,,,,,0,1,1,2,1,,,,,,,,,,,,,,,,,,,,,,,,,,,,,,,,,,,,,,,,,,,,,,
mauriello,001,2022-11-21_24h46.54.267,Info_measure_main_exp,2022.2.2,Win32,61.06497313,,,,,,,,,,,,,,,,,,masks/mask_005.jpg,,,,,,,,,,,,,,,,,,,,,,,,,,,,,,,,,,,,,,,,,,,0,2,2,4,1,,,,,,,,,,,,,,,,,,,,,,,,,,,,,,,,,,,,,,,,,,,,,,
mauriello,001,2022-11-21_24h46.54.267,Info_measure_main_exp,2022.2.2,Win32,61.06497313,,,,,,,,,,,,,,,,,,masks/mask_001.jpg,,,,,,,,,,,,,,,,,,,,,,,,,,,,,,,,,,,,,,,,,,,0,3,3,0,1,,,,,,,,,,,,,,,,,,,,,,,,,,,,,,,,,,,,,,,,,,,,,,
mauriello,001,2022-11-21_24h46.54.267,Info_measure_main_exp,2022.2.2,Win32,61.06497313,,,,,,,,,,,,,,,,,,masks/mask_002.jpg,,,,,,,,,,,,,,,,,,,,,,,,,,,,,,,,,,,,,,,,,,,0,4,4,1,1,,,,,,,,,,,,,,,,,,,,,,,,,,,,,,,,,,,,,,,,,,,,,,
mauriello,001,2022-11-21_24h46.54.267,Info_measure_main_exp,2022.2.2,Win32,61.06497313,,,,,,,,,,,,,,,,,,masks/mask_005.jpg,,,,,,,,,,,,,,,,,,,,,,,,,,,,,,,,,,,,,,,,,,,,,,,,0,0,0,4,1,,,,,,,,,,,,,,,,,,,,,,,,,,,,,,,,,,,,,,,,,
mauriello,001,2022-11-21_24h46.54.267,Info_measure_main_exp,2022.2.2,Win32,61.06497313,,,,,,,,,,,,,,,,,,masks/mask_002.jpg,,,,,,,,,,,,,,,,,,,,,,,,,,,,,,,,,,,,,,,,,,,,,,,,0,1,1,1,1,,,,,,,,,,,,,,,,,,,,,,,,,,,,,,,,,,,,,,,,,
mauriello,001,2022-11-21_24h46.54.267,Info_measure_main_exp,2022.2.2,Win32,61.06497313,,,,,,,,,,,,,,,,,,masks/mask_001.jpg,,,,,,,,,,,,,,,,,,,,,,,,,,,,,,,,,,,,,,,,,,,,,,,,0,2,2,0,1,,,,,,,,,,,,,,,,,,,,,,,,,,,,,,,,,,,,,,,,,
mauriello,001,2022-11-21_24h46.54.267,Info_measure_main_exp,2022.2.2,Win32,61.06497313,,,,,,,,,,,,,,,,,,masks/mask_004.jpg,,,,,,,,,,,,,,,,,,,,,,,,,,,,,,,,,,,,,,,,,,,,,,,,0,3,3,3,1,,,,,,,,,,,,,,,,,,,,,,,,,,,,,,,,,,,,,,,,,
mauriello,001,2022-11-21_24h46.54.267,Info_measure_main_exp,2022.2.2,Win32,61.06497313,,,,,,,,,,,,,,,,,,masks/mask_003.jpg,,,,,,,,,,,,,,,,,,,,,,,,,,,,,,,,,,,,,,,,,,,,,,,,0,4,4,2,1,,,,,,,,,,,,,,,,,,,,,,,,,,,,,,,,,,,,,,,,,
mauriello,001,2022-11-21_24h46.54.267,Info_measure_main_exp,2022.2.2,Win32,61.06497313,,,,,,,,,,,,,,,,,,,,,,,,,,,,,,0,0.7727,1,,,,,,,,,,,,0,131,5,5,2166,2166,absent_patch/patch0002166.jpg,absent_patch/patch0002166.jpg,,,,,,,,,,,,,,,,,,,,-0.042592593,0.092592593,1,0,0,response7disk,10,-0.002777778,0.007407407,1,0,0,center_square,0,9,9,42,1,,,,,,,,,,,,,,,,,,,,,,,
mauriello,001,2022-11-21_24h46.54.267,Info_measure_main_exp,2022.2.2,Win32,61.06497313,,,,,,,,,,,,,,,,,,masks/mask_004.jpg,,,,,,,,,,,,,,,,,,,,,,,,,,,,,,,,,,,,,,,,,,,0,0,0,3,1,,,,,,,,,,,,,,,,,,,,,,,,,,,,,,,,,,,,,,,,,,,,,,
mauriello,001,2022-11-21_24h46.54.267,Info_measure_main_exp,2022.2.2,Win32,61.06497313,,,,,,,,,,,,,,,,,,masks/mask_003.jpg,,,,,,,,,,,,,,,,,,,,,,,,,,,,,,,,,,,,,,,,,,,0,1,1,2,1,,,,,,,,,,,,,,,,,,,,,,,,,,,,,,,,,,,,,,,,,,,,,,
mauriello,001,2022-11-21_24h46.54.267,Info_measure_main_exp,2022.2.2,Win32,61.06497313,,,,,,,,,,,,,,,,,,masks/mask_005.jpg,,,,,,,,,,,,,,,,,,,,,,,,,,,,,,,,,,,,,,,,,,,0,2,2,4,1,,,,,,,,,,,,,,,,,,,,,,,,,,,,,,,,,,,,,,,,,,,,,,
mauriello,001,2022-11-21_24h46.54.267,Info_measure_main_exp,2022.2.2,Win32,61.06497313,,,,,,,,,,,,,,,,,,masks/mask_002.jpg,,,,,,,,,,,,,,,,,,,,,,,,,,,,,,,,,,,,,,,,,,,0,3,3,1,1,,,,,,,,,,,,,,,,,,,,,,,,,,,,,,,,,,,,,,,,,,,,,,
mauriello,001,2022-11-21_24h46.54.267,Info_measure_main_exp,2022.2.2,Win32,61.06497313,,,,,,,,,,,,,,,,,,masks/mask_001.jpg,,,,,,,,,,,,,,,,,,,,,,,,,,,,,,,,,,,,,,,,,,,0,4,4,0,1,,,,,,,,,,,,,,,,,,,,,,,,,,,,,,,,,,,,,,,,,,,,,,
mauriello,001,2022-11-21_24h46.54.267,Info_measure_main_exp,2022.2.2,Win32,61.06497313,,,,,,,,,,,,,,,,,,masks/mask_003.jpg,,,,,,,,,,,,,,,,,,,,,,,,,,,,,,,,,,,,,,,,,,,,,,,,0,0,0,2,1,,,,,,,,,,,,,,,,,,,,,,,,,,,,,,,,,,,,,,,,,
mauriello,001,2022-11-21_24h46.54.267,Info_measure_main_exp,2022.2.2,Win32,61.06497313,,,,,,,,,,,,,,,,,,masks/mask_005.jpg,,,,,,,,,,,,,,,,,,,,,,,,,,,,,,,,,,,,,,,,,,,,,,,,0,1,1,4,1,,,,,,,,,,,,,,,,,,,,,,,,,,,,,,,,,,,,,,,,,
mauriello,001,2022-11-21_24h46.54.267,Info_measure_main_exp,2022.2.2,Win32,61.06497313,,,,,,,,,,,,,,,,,,masks/mask_004.jpg,,,,,,,,,,,,,,,,,,,,,,,,,,,,,,,,,,,,,,,,,,,,,,,,0,2,2,3,1,,,,,,,,,,,,,,,,,,,,,,,,,,,,,,,,,,,,,,,,,
mauriello,001,2022-11-21_24h46.54.267,Info_measure_main_exp,2022.2.2,Win32,61.06497313,,,,,,,,,,,,,,,,,,masks/mask_001.jpg,,,,,,,,,,,,,,,,,,,,,,,,,,,,,,,,,,,,,,,,,,,,,,,,0,3,3,0,1,,,,,,,,,,,,,,,,,,,,,,,,,,,,,,,,,,,,,,,,,
mauriello,001,2022-11-21_24h46.54.267,Info_measure_main_exp,2022.2.2,Win32,61.06497313,,,,,,,,,,,,,,,,,,masks/mask_002.jpg,,,,,,,,,,,,,,,,,,,,,,,,,,,,,,,,,,,,,,,,,,,,,,,,0,4,4,1,1,,,,,,,,,,,,,,,,,,,,,,,,,,,,,,,,,,,,,,,,,
mauriello,001,2022-11-21_24h46.54.267,Info_measure_main_exp,2022.2.2,Win32,61.06497313,,,,,,,,,,,,,,,,,,,,,,,,,,,,,,0,0.6829,1,,,,,,,,,,,,0,131,5,5,2238,2238,absent_patch/patch0002238.jpg,absent_patch/patch0002238.jpg,,,,,,,,,,,,,,,,,,,,-0.039814815,0.108333333,1,0,0,response7disk,11,-0.001851852,-0.011111111,1,0,0,center_square,0,10,10,58,1,,,,,,,,,,,,,,,,,,,,,,,
mauriello,001,2022-11-21_24h46.54.267,Info_measure_main_exp,2022.2.2,Win32,61.06497313,,,,,,,,,,,,,,,,,,masks/mask_001.jpg,,,,,,,,,,,,,,,,,,,,,,,,,,,,,,,,,,,,,,,,,,,0,0,0,0,1,,,,,,,,,,,,,,,,,,,,,,,,,,,,,,,,,,,,,,,,,,,,,,
mauriello,001,2022-11-21_24h46.54.267,Info_measure_main_exp,2022.2.2,Win32,61.06497313,,,,,,,,,,,,,,,,,,masks/mask_003.jpg,,,,,,,,,,,,,,,,,,,,,,,,,,,,,,,,,,,,,,,,,,,0,1,1,2,1,,,,,,,,,,,,,,,,,,,,,,,,,,,,,,,,,,,,,,,,,,,,,,
mauriello,001,2022-11-21_24h46.54.267,Info_measure_main_exp,2022.2.2,Win32,61.06497313,,,,,,,,,,,,,,,,,,masks/mask_005.jpg,,,,,,,,,,,,,,,,,,,,,,,,,,,,,,,,,,,,,,,,,,,0,2,2,4,1,,,,,,,,,,,,,,,,,,,,,,,,,,,,,,,,,,,,,,,,,,,,,,
mauriello,001,2022-11-21_24h46.54.267,Info_measure_main_exp,2022.2.2,Win32,61.06497313,,,,,,,,,,,,,,,,,,masks/mask_002.jpg,,,,,,,,,,,,,,,,,,,,,,,,,,,,,,,,,,,,,,,,,,,0,3,3,1,1,,,,,,,,,,,,,,,,,,,,,,,,,,,,,,,,,,,,,,,,,,,,,,
mauriello,001,2022-11-21_24h46.54.267,Info_measure_main_exp,2022.2.2,Win32,61.06497313,,,,,,,,,,,,,,,,,,masks/mask_004.jpg,,,,,,,,,,,,,,,,,,,,,,,,,,,,,,,,,,,,,,,,,,,0,4,4,3,1,,,,,,,,,,,,,,,,,,,,,,,,,,,,,,,,,,,,,,,,,,,,,,
mauriello,001,2022-11-21_24h46.54.267,Info_measure_main_exp,2022.2.2,Win32,61.06497313,,,,,,,,,,,,,,,,,,masks/mask_001.jpg,,,,,,,,,,,,,,,,,,,,,,,,,,,,,,,,,,,,,,,,,,,,,,,,0,0,0,0,1,,,,,,,,,,,,,,,,,,,,,,,,,,,,,,,,,,,,,,,,,
mauriello,001,2022-11-21_24h46.54.267,Info_measure_main_exp,2022.2.2,Win32,61.06497313,,,,,,,,,,,,,,,,,,masks/mask_004.jpg,,,,,,,,,,,,,,,,,,,,,,,,,,,,,,,,,,,,,,,,,,,,,,,,0,1,1,3,1,,,,,,,,,,,,,,,,,,,,,,,,,,,,,,,,,,,,,,,,,
mauriello,001,2022-11-21_24h46.54.267,Info_measure_main_exp,2022.2.2,Win32,61.06497313,,,,,,,,,,,,,,,,,,masks/mask_005.jpg,,,,,,,,,,,,,,,,,,,,,,,,,,,,,,,,,,,,,,,,,,,,,,,,0,2,2,4,1,,,,,,,,,,,,,,,,,,,,,,,,,,,,,,,,,,,,,,,,,
mauriello,001,2022-11-21_24h46.54.267,Info_measure_main_exp,2022.2.2,Win32,61.06497313,,,,,,,,,,,,,,,,,,masks/mask_002.jpg,,,,,,,,,,,,,,,,,,,,,,,,,,,,,,,,,,,,,,,,,,,,,,,,0,3,3,1,1,,,,,,,,,,,,,,,,,,,,,,,,,,,,,,,,,,,,,,,,,
mauriello,001,2022-11-21_24h46.54.267,Info_measure_main_exp,2022.2.2,Win32,61.06497313,,,,,,,,,,,,,,,,,,masks/mask_003.jpg,,,,,,,,,,,,,,,,,,,,,,,,,,,,,,,,,,,,,,,,,,,,,,,,0,4,4,2,1,,,,,,,,,,,,,,,,,,,,,,,,,,,,,,,,,,,,,,,,,
mauriello,001,2022-11-21_24h46.54.267,Info_measure_main_exp,2022.2.2,Win32,61.06497313,,,,,,,,,,,,,,,,,,,,,,,,,,,,,,6,1.3731,1,,,,,,,,,,,,0,131,5,5,2238,2214,absent_patch/patch0002238.jpg,absent_patch/patch0002214.jpg,,,,,,,,,,,,,,,,,,,,0.130555556,0.019444444,1,0,0,response1disk,12,0,-0.000925926,1,0,0,center_square,0,11,11,81,1,,,,,,,,,,,,,,,,,,,,,,,
mauriello,001,2022-11-21_24h46.54.267,Info_measure_main_exp,2022.2.2,Win32,61.06497313,,,,,,,,,,,,,,,,,,masks/mask_004.jpg,,,,,,,,,,,,,,,,,,,,,,,,,,,,,,,,,,,,,,,,,,,0,0,0,3,1,,,,,,,,,,,,,,,,,,,,,,,,,,,,,,,,,,,,,,,,,,,,,,
mauriello,001,2022-11-21_24h46.54.267,Info_measure_main_exp,2022.2.2,Win32,61.06497313,,,,,,,,,,,,,,,,,,masks/mask_003.jpg,,,,,,,,,,,,,,,,,,,,,,,,,,,,,,,,,,,,,,,,,,,0,1,1,2,1,,,,,,,,,,,,,,,,,,,,,,,,,,,,,,,,,,,,,,,,,,,,,,
mauriello,001,2022-11-21_24h46.54.267,Info_measure_main_exp,2022.2.2,Win32,61.06497313,,,,,,,,,,,,,,,,,,masks/mask_005.jpg,,,,,,,,,,,,,,,,,,,,,,,,,,,,,,,,,,,,,,,,,,,0,2,2,4,1,,,,,,,,,,,,,,,,,,,,,,,,,,,,,,,,,,,,,,,,,,,,,,
mauriello,001,2022-11-21_24h46.54.267,Info_measure_main_exp,2022.2.2,Win32,61.06497313,,,,,,,,,,,,,,,,,,masks/mask_001.jpg,,,,,,,,,,,,,,,,,,,,,,,,,,,,,,,,,,,,,,,,,,,0,3,3,0,1,,,,,,,,,,,,,,,,,,,,,,,,,,,,,,,,,,,,,,,,,,,,,,
mauriello,001,2022-11-21_24h46.54.267,Info_measure_main_exp,2022.2.2,Win32,61.06497313,,,,,,,,,,,,,,,,,,masks/mask_002.jpg,,,,,,,,,,,,,,,,,,,,,,,,,,,,,,,,,,,,,,,,,,,0,4,4,1,1,,,,,,,,,,,,,,,,,,,,,,,,,,,,,,,,,,,,,,,,,,,,,,
mauriello,001,2022-11-21_24h46.54.267,Info_measure_main_exp,2022.2.2,Win32,61.06497313,,,,,,,,,,,,,,,,,,masks/mask_005.jpg,,,,,,,,,,,,,,,,,,,,,,,,,,,,,,,,,,,,,,,,,,,,,,,,0,0,0,4,1,,,,,,,,,,,,,,,,,,,,,,,,,,,,,,,,,,,,,,,,,
mauriello,001,2022-11-21_24h46.54.267,Info_measure_main_exp,2022.2.2,Win32,61.06497313,,,,,,,,,,,,,,,,,,masks/mask_002.jpg,,,,,,,,,,,,,,,,,,,,,,,,,,,,,,,,,,,,,,,,,,,,,,,,0,1,1,1,1,,,,,,,,,,,,,,,,,,,,,,,,,,,,,,,,,,,,,,,,,
mauriello,001,2022-11-21_24h46.54.267,Info_measure_main_exp,2022.2.2,Win32,61.06497313,,,,,,,,,,,,,,,,,,masks/mask_003.jpg,,,,,,,,,,,,,,,,,,,,,,,,,,,,,,,,,,,,,,,,,,,,,,,,0,2,2,2,1,,,,,,,,,,,,,,,,,,,,,,,,,,,,,,,,,,,,,,,,,
mauriello,001,2022-11-21_24h46.54.267,Info_measure_main_exp,2022.2.2,Win32,61.06497313,,,,,,,,,,,,,,,,,,masks/mask_004.jpg,,,,,,,,,,,,,,,,,,,,,,,,,,,,,,,,,,,,,,,,,,,,,,,,0,3,3,3,1,,,,,,,,,,,,,,,,,,,,,,,,,,,,,,,,,,,,,,,,,
mauriello,001,2022-11-21_24h46.54.267,Info_measure_main_exp,2022.2.2,Win32,61.06497313,,,,,,,,,,,,,,,,,,masks/mask_001.jpg,,,,,,,,,,,,,,,,,,,,,,,,,,,,,,,,,,,,,,,,,,,,,,,,0,4,4,0,1,,,,,,,,,,,,,,,,,,,,,,,,,,,,,,,,,,,,,,,,,
mauriello,001,2022-11-21_24h46.54.267,Info_measure_main_exp,2022.2.2,Win32,61.06497313,,,,,,,,,,,,,,,,,,,,,,,,,,,,,,2,1.9326,1,,,,,,,,,,,,0,131,5,5,2082,2082,absent_patch/patch0002082.jpg,absent_patch/patch0002082.jpg,,,,,,,,,,,,,,,,,,,,-0.10462963,-0.071296296,1,0,0,response5disk,13,0.006481481,-0.006481481,1,0,0,center_square,0,12,12,74,1,,,,,,,,,,,,,,,,,,,,,,,
mauriello,001,2022-11-21_24h46.54.267,Info_measure_main_exp,2022.2.2,Win32,61.06497313,,,,,,,,,,,,,,,,,,masks/mask_001.jpg,,,,,,,,,,,,,,,,,,,,,,,,,,,,,,,,,,,,,,,,,,,0,0,0,0,1,,,,,,,,,,,,,,,,,,,,,,,,,,,,,,,,,,,,,,,,,,,,,,
mauriello,001,2022-11-21_24h46.54.267,Info_measure_main_exp,2022.2.2,Win32,61.06497313,,,,,,,,,,,,,,,,,,masks/mask_002.jpg,,,,,,,,,,,,,,,,,,,,,,,,,,,,,,,,,,,,,,,,,,,0,1,1,1,1,,,,,,,,,,,,,,,,,,,,,,,,,,,,,,,,,,,,,,,,,,,,,,
mauriello,001,2022-11-21_24h46.54.267,Info_measure_main_exp,2022.2.2,Win32,61.06497313,,,,,,,,,,,,,,,,,,masks/mask_005.jpg,,,,,,,,,,,,,,,,,,,,,,,,,,,,,,,,,,,,,,,,,,,0,2,2,4,1,,,,,,,,,,,,,,,,,,,,,,,,,,,,,,,,,,,,,,,,,,,,,,
mauriello,001,2022-11-21_24h46.54.267,Info_measure_main_exp,2022.2.2,Win32,61.06497313,,,,,,,,,,,,,,,,,,masks/mask_004.jpg,,,,,,,,,,,,,,,,,,,,,,,,,,,,,,,,,,,,,,,,,,,0,3,3,3,1,,,,,,,,,,,,,,,,,,,,,,,,,,,,,,,,,,,,,,,,,,,,,,
mauriello,001,2022-11-21_24h46.54.267,Info_measure_main_exp,2022.2.2,Win32,61.06497313,,,,,,,,,,,,,,,,,,masks/mask_003.jpg,,,,,,,,,,,,,,,,,,,,,,,,,,,,,,,,,,,,,,,,,,,0,4,4,2,1,,,,,,,,,,,,,,,,,,,,,,,,,,,,,,,,,,,,,,,,,,,,,,
mauriello,001,2022-11-21_24h46.54.267,Info_measure_main_exp,2022.2.2,Win32,61.06497313,,,,,,,,,,,,,,,,,,masks/mask_004.jpg,,,,,,,,,,,,,,,,,,,,,,,,,,,,,,,,,,,,,,,,,,,,,,,,0,0,0,3,1,,,,,,,,,,,,,,,,,,,,,,,,,,,,,,,,,,,,,,,,,
mauriello,001,2022-11-21_24h46.54.267,Info_measure_main_exp,2022.2.2,Win32,61.06497313,,,,,,,,,,,,,,,,,,masks/mask_003.jpg,,,,,,,,,,,,,,,,,,,,,,,,,,,,,,,,,,,,,,,,,,,,,,,,0,1,1,2,1,,,,,,,,,,,,,,,,,,,,,,,,,,,,,,,,,,,,,,,,,
mauriello,001,2022-11-21_24h46.54.267,Info_measure_main_exp,2022.2.2,Win32,61.06497313,,,,,,,,,,,,,,,,,,masks/mask_002.jpg,,,,,,,,,,,,,,,,,,,,,,,,,,,,,,,,,,,,,,,,,,,,,,,,0,2,2,1,1,,,,,,,,,,,,,,,,,,,,,,,,,,,,,,,,,,,,,,,,,
mauriello,001,2022-11-21_24h46.54.267,Info_measure_main_exp,2022.2.2,Win32,61.06497313,,,,,,,,,,,,,,,,,,masks/mask_005.jpg,,,,,,,,,,,,,,,,,,,,,,,,,,,,,,,,,,,,,,,,,,,,,,,,0,3,3,4,1,,,,,,,,,,,,,,,,,,,,,,,,,,,,,,,,,,,,,,,,,
mauriello,001,2022-11-21_24h46.54.267,Info_measure_main_exp,2022.2.2,Win32,61.06497313,,,,,,,,,,,,,,,,,,masks/mask_001.jpg,,,,,,,,,,,,,,,,,,,,,,,,,,,,,,,,,,,,,,,,,,,,,,,,0,4,4,0,1,,,,,,,,,,,,,,,,,,,,,,,,,,,,,,,,,,,,,,,,,
mauriello,001,2022-11-21_24h46.54.267,Info_measure_main_exp,2022.2.2,Win32,61.06497313,,,,,,,,,,,,,,,,,,,,,,,,,,,,,,6,1.0759,1,,,,,,,,,,,,0,131,5,5,2190,1950,absent_patch/patch0002190.jpg,absent_patch/patch0001950.jpg,,,,,,,,,,,,,,,,,,,,0.15,0.047222222,1,0,0,response1disk,14,-0.010185185,-0.007407407,1,0,0,center_square,0,13,13,73,1,,,,,,,,,,,,,,,,,,,,,,,
mauriello,001,2022-11-21_24h46.54.267,Info_measure_main_exp,2022.2.2,Win32,61.06497313,,,,,,,,,,,,,,,,,,masks/mask_002.jpg,,,,,,,,,,,,,,,,,,,,,,,,,,,,,,,,,,,,,,,,,,,0,0,0,1,1,,,,,,,,,,,,,,,,,,,,,,,,,,,,,,,,,,,,,,,,,,,,,,
mauriello,001,2022-11-21_24h46.54.267,Info_measure_main_exp,2022.2.2,Win32,61.06497313,,,,,,,,,,,,,,,,,,masks/mask_003.jpg,,,,,,,,,,,,,,,,,,,,,,,,,,,,,,,,,,,,,,,,,,,0,1,1,2,1,,,,,,,,,,,,,,,,,,,,,,,,,,,,,,,,,,,,,,,,,,,,,,
mauriello,001,2022-11-21_24h46.54.267,Info_measure_main_exp,2022.2.2,Win32,61.06497313,,,,,,,,,,,,,,,,,,masks/mask_005.jpg,,,,,,,,,,,,,,,,,,,,,,,,,,,,,,,,,,,,,,,,,,,0,2,2,4,1,,,,,,,,,,,,,,,,,,,,,,,,,,,,,,,,,,,,,,,,,,,,,,
mauriello,001,2022-11-21_24h46.54.267,Info_measure_main_exp,2022.2.2,Win32,61.06497313,,,,,,,,,,,,,,,,,,masks/mask_001.jpg,,,,,,,,,,,,,,,,,,,,,,,,,,,,,,,,,,,,,,,,,,,0,3,3,0,1,,,,,,,,,,,,,,,,,,,,,,,,,,,,,,,,,,,,,,,,,,,,,,
mauriello,001,2022-11-21_24h46.54.267,Info_measure_main_exp,2022.2.2,Win32,61.06497313,,,,,,,,,,,,,,,,,,masks/mask_004.jpg,,,,,,,,,,,,,,,,,,,,,,,,,,,,,,,,,,,,,,,,,,,0,4,4,3,1,,,,,,,,,,,,,,,,,,,,,,,,,,,,,,,,,,,,,,,,,,,,,,
mauriello,001,2022-11-21_24h46.54.267,Info_measure_main_exp,2022.2.2,Win32,61.06497313,,,,,,,,,,,,,,,,,,masks/mask_005.jpg,,,,,,,,,,,,,,,,,,,,,,,,,,,,,,,,,,,,,,,,,,,,,,,,0,0,0,4,1,,,,,,,,,,,,,,,,,,,,,,,,,,,,,,,,,,,,,,,,,
mauriello,001,2022-11-21_24h46.54.267,Info_measure_main_exp,2022.2.2,Win32,61.06497313,,,,,,,,,,,,,,,,,,masks/mask_001.jpg,,,,,,,,,,,,,,,,,,,,,,,,,,,,,,,,,,,,,,,,,,,,,,,,0,1,1,0,1,,,,,,,,,,,,,,,,,,,,,,,,,,,,,,,,,,,,,,,,,
mauriello,001,2022-11-21_24h46.54.267,Info_measure_main_exp,2022.2.2,Win32,61.06497313,,,,,,,,,,,,,,,,,,masks/mask_002.jpg,,,,,,,,,,,,,,,,,,,,,,,,,,,,,,,,,,,,,,,,,,,,,,,,0,2,2,1,1,,,,,,,,,,,,,,,,,,,,,,,,,,,,,,,,,,,,,,,,,
mauriello,001,2022-11-21_24h46.54.267,Info_measure_main_exp,2022.2.2,Win32,61.06497313,,,,,,,,,,,,,,,,,,masks/mask_004.jpg,,,,,,,,,,,,,,,,,,,,,,,,,,,,,,,,,,,,,,,,,,,,,,,,0,3,3,3,1,,,,,,,,,,,,,,,,,,,,,,,,,,,,,,,,,,,,,,,,,
mauriello,001,2022-11-21_24h46.54.267,Info_measure_main_exp,2022.2.2,Win32,61.06497313,,,,,,,,,,,,,,,,,,masks/mask_003.jpg,,,,,,,,,,,,,,,,,,,,,,,,,,,,,,,,,,,,,,,,,,,,,,,,0,4,4,2,1,,,,,,,,,,,,,,,,,,,,,,,,,,,,,,,,,,,,,,,,,
mauriello,001,2022-11-21_24h46.54.267,Info_measure_main_exp,2022.2.2,Win32,61.06497313,,,,,,,,,,,,,,,,,,,,,,,,,,,,,,7,1.0489,1,,,,,,,,,,,,0,131,5,5,2250,1950,absent_patch/patch0002250.jpg,absent_patch/patch0001950.jpg,,,,,,,,,,,,,,,,,,,,0.075925926,0.126851852,1,0,0,response1disk,15,0.008333333,-0.006481481,1,0,0,center_square,0,14,14,16,1,,,,,,,,,,,,,,,,,,,,,,,
mauriello,001,2022-11-21_24h46.54.267,Info_measure_main_exp,2022.2.2,Win32,61.06497313,,,,,,,,,,,,,,,,,,masks/mask_003.jpg,,,,,,,,,,,,,,,,,,,,,,,,,,,,,,,,,,,,,,,,,,,0,0,0,2,1,,,,,,,,,,,,,,,,,,,,,,,,,,,,,,,,,,,,,,,,,,,,,,
mauriello,001,2022-11-21_24h46.54.267,Info_measure_main_exp,2022.2.2,Win32,61.06497313,,,,,,,,,,,,,,,,,,masks/mask_004.jpg,,,,,,,,,,,,,,,,,,,,,,,,,,,,,,,,,,,,,,,,,,,0,1,1,3,1,,,,,,,,,,,,,,,,,,,,,,,,,,,,,,,,,,,,,,,,,,,,,,
mauriello,001,2022-11-21_24h46.54.267,Info_measure_main_exp,2022.2.2,Win32,61.06497313,,,,,,,,,,,,,,,,,,masks/mask_005.jpg,,,,,,,,,,,,,,,,,,,,,,,,,,,,,,,,,,,,,,,,,,,0,2,2,4,1,,,,,,,,,,,,,,,,,,,,,,,,,,,,,,,,,,,,,,,,,,,,,,
mauriello,001,2022-11-21_24h46.54.267,Info_measure_main_exp,2022.2.2,Win32,61.06497313,,,,,,,,,,,,,,,,,,masks/mask_001.jpg,,,,,,,,,,,,,,,,,,,,,,,,,,,,,,,,,,,,,,,,,,,0,3,3,0,1,,,,,,,,,,,,,,,,,,,,,,,,,,,,,,,,,,,,,,,,,,,,,,
mauriello,001,2022-11-21_24h46.54.267,Info_measure_main_exp,2022.2.2,Win32,61.06497313,,,,,,,,,,,,,,,,,,masks/mask_002.jpg,,,,,,,,,,,,,,,,,,,,,,,,,,,,,,,,,,,,,,,,,,,0,4,4,1,1,,,,,,,,,,,,,,,,,,,,,,,,,,,,,,,,,,,,,,,,,,,,,,
mauriello,001,2022-11-21_24h46.54.267,Info_measure_main_exp,2022.2.2,Win32,61.06497313,,,,,,,,,,,,,,,,,,masks/mask_002.jpg,,,,,,,,,,,,,,,,,,,,,,,,,,,,,,,,,,,,,,,,,,,,,,,,0,0,0,1,1,,,,,,,,,,,,,,,,,,,,,,,,,,,,,,,,,,,,,,,,,
mauriello,001,2022-11-21_24h46.54.267,Info_measure_main_exp,2022.2.2,Win32,61.06497313,,,,,,,,,,,,,,,,,,masks/mask_004.jpg,,,,,,,,,,,,,,,,,,,,,,,,,,,,,,,,,,,,,,,,,,,,,,,,0,1,1,3,1,,,,,,,,,,,,,,,,,,,,,,,,,,,,,,,,,,,,,,,,,
mauriello,001,2022-11-21_24h46.54.267,Info_measure_main_exp,2022.2.2,Win32,61.06497313,,,,,,,,,,,,,,,,,,masks/mask_001.jpg,,,,,,,,,,,,,,,,,,,,,,,,,,,,,,,,,,,,,,,,,,,,,,,,0,2,2,0,1,,,,,,,,,,,,,,,,,,,,,,,,,,,,,,,,,,,,,,,,,
mauriello,001,2022-11-21_24h46.54.267,Info_measure_main_exp,2022.2.2,Win32,61.06497313,,,,,,,,,,,,,,,,,,masks/mask_003.jpg,,,,,,,,,,,,,,,,,,,,,,,,,,,,,,,,,,,,,,,,,,,,,,,,0,3,3,2,1,,,,,,,,,,,,,,,,,,,,,,,,,,,,,,,,,,,,,,,,,
mauriello,001,2022-11-21_24h46.54.267,Info_measure_main_exp,2022.2.2,Win32,61.06497313,,,,,,,,,,,,,,,,,,masks/mask_005.jpg,,,,,,,,,,,,,,,,,,,,,,,,,,,,,,,,,,,,,,,,,,,,,,,,0,4,4,4,1,,,,,,,,,,,,,,,,,,,,,,,,,,,,,,,,,,,,,,,,,
mauriello,001,2022-11-21_24h46.54.267,Info_measure_main_exp,2022.2.2,Win32,61.06497313,,,,,,,,,,,,,,,,,,,,,,,,,,,,,,7,0.8332,1,,,,,,,,,,,,0,131,5,5,2250,2178,absent_patch/patch0002250.jpg,absent_patch/patch0002178.jpg,,,,,,,,,,,,,,,,,,,,0.062962963,0.147222222,1,0,0,response1disk,16,0.006481481,0.00462963,1,0,0,center_square,0,15,15,48,1,,,,,,,,,,,,,,,,,,,,,,,
mauriello,001,2022-11-21_24h46.54.267,Info_measure_main_exp,2022.2.2,Win32,61.06497313,,,,,,,,,,,,,,,,,,masks/mask_005.jpg,,,,,,,,,,,,,,,,,,,,,,,,,,,,,,,,,,,,,,,,,,,0,0,0,4,1,,,,,,,,,,,,,,,,,,,,,,,,,,,,,,,,,,,,,,,,,,,,,,
mauriello,001,2022-11-21_24h46.54.267,Info_measure_main_exp,2022.2.2,Win32,61.06497313,,,,,,,,,,,,,,,,,,masks/mask_002.jpg,,,,,,,,,,,,,,,,,,,,,,,,,,,,,,,,,,,,,,,,,,,0,1,1,1,1,,,,,,,,,,,,,,,,,,,,,,,,,,,,,,,,,,,,,,,,,,,,,,
mauriello,001,2022-11-21_24h46.54.267,Info_measure_main_exp,2022.2.2,Win32,61.06497313,,,,,,,,,,,,,,,,,,masks/mask_001.jpg,,,,,,,,,,,,,,,,,,,,,,,,,,,,,,,,,,,,,,,,,,,0,2,2,0,1,,,,,,,,,,,,,,,,,,,,,,,,,,,,,,,,,,,,,,,,,,,,,,
mauriello,001,2022-11-21_24h46.54.267,Info_measure_main_exp,2022.2.2,Win32,61.06497313,,,,,,,,,,,,,,,,,,masks/mask_004.jpg,,,,,,,,,,,,,,,,,,,,,,,,,,,,,,,,,,,,,,,,,,,0,3,3,3,1,,,,,,,,,,,,,,,,,,,,,,,,,,,,,,,,,,,,,,,,,,,,,,
mauriello,001,2022-11-21_24h46.54.267,Info_measure_main_exp,2022.2.2,Win32,61.06497313,,,,,,,,,,,,,,,,,,masks/mask_003.jpg,,,,,,,,,,,,,,,,,,,,,,,,,,,,,,,,,,,,,,,,,,,0,4,4,2,1,,,,,,,,,,,,,,,,,,,,,,,,,,,,,,,,,,,,,,,,,,,,,,
mauriello,001,2022-11-21_24h46.54.267,Info_measure_main_exp,2022.2.2,Win32,61.06497313,,,,,,,,,,,,,,,,,,masks/mask_001.jpg,,,,,,,,,,,,,,,,,,,,,,,,,,,,,,,,,,,,,,,,,,,,,,,,0,0,0,0,1,,,,,,,,,,,,,,,,,,,,,,,,,,,,,,,,,,,,,,,,,
mauriello,001,2022-11-21_24h46.54.267,Info_measure_main_exp,2022.2.2,Win32,61.06497313,,,,,,,,,,,,,,,,,,masks/mask_003.jpg,,,,,,,,,,,,,,,,,,,,,,,,,,,,,,,,,,,,,,,,,,,,,,,,0,1,1,2,1,,,,,,,,,,,,,,,,,,,,,,,,,,,,,,,,,,,,,,,,,
mauriello,001,2022-11-21_24h46.54.267,Info_measure_main_exp,2022.2.2,Win32,61.06497313,,,,,,,,,,,,,,,,,,masks/mask_002.jpg,,,,,,,,,,,,,,,,,,,,,,,,,,,,,,,,,,,,,,,,,,,,,,,,0,2,2,1,1,,,,,,,,,,,,,,,,,,,,,,,,,,,,,,,,,,,,,,,,,
mauriello,001,2022-11-21_24h46.54.267,Info_measure_main_exp,2022.2.2,Win32,61.06497313,,,,,,,,,,,,,,,,,,masks/mask_004.jpg,,,,,,,,,,,,,,,,,,,,,,,,,,,,,,,,,,,,,,,,,,,,,,,,0,3,3,3,1,,,,,,,,,,,,,,,,,,,,,,,,,,,,,,,,,,,,,,,,,
mauriello,001,2022-11-21_24h46.54.267,Info_measure_main_exp,2022.2.2,Win32,61.06497313,,,,,,,,,,,,,,,,,,masks/mask_005.jpg,,,,,,,,,,,,,,,,,,,,,,,,,,,,,,,,,,,,,,,,,,,,,,,,0,4,4,4,1,,,,,,,,,,,,,,,,,,,,,,,,,,,,,,,,,,,,,,,,,
mauriello,001,2022-11-21_24h46.54.267,Info_measure_main_exp,2022.2.2,Win32,61.06497313,,,,,,,,,,,,,,,,,,,,,,,,,,,,,,7,0.7339,1,,,,,,,,,,,,0,131,5,5,1950,2214,absent_patch/patch0001950.jpg,absent_patch/patch0002214.jpg,,,,,,,,,,,,,,,,,,,,0.031481481,0.109259259,1,0,0,response1disk,17,0.005555556,-0.006481481,1,0,0,center_square,0,16,16,85,1,,,,,,,,,,,,,,,,,,,,,,,
mauriello,001,2022-11-21_24h46.54.267,Info_measure_main_exp,2022.2.2,Win32,61.06497313,,,,,,,,,,,,,,,,,,masks/mask_004.jpg,,,,,,,,,,,,,,,,,,,,,,,,,,,,,,,,,,,,,,,,,,,0,0,0,3,1,,,,,,,,,,,,,,,,,,,,,,,,,,,,,,,,,,,,,,,,,,,,,,
mauriello,001,2022-11-21_24h46.54.267,Info_measure_main_exp,2022.2.2,Win32,61.06497313,,,,,,,,,,,,,,,,,,masks/mask_003.jpg,,,,,,,,,,,,,,,,,,,,,,,,,,,,,,,,,,,,,,,,,,,0,1,1,2,1,,,,,,,,,,,,,,,,,,,,,,,,,,,,,,,,,,,,,,,,,,,,,,
mauriello,001,2022-11-21_24h46.54.267,Info_measure_main_exp,2022.2.2,Win32,61.06497313,,,,,,,,,,,,,,,,,,masks/mask_001.jpg,,,,,,,,,,,,,,,,,,,,,,,,,,,,,,,,,,,,,,,,,,,0,2,2,0,1,,,,,,,,,,,,,,,,,,,,,,,,,,,,,,,,,,,,,,,,,,,,,,
mauriello,001,2022-11-21_24h46.54.267,Info_measure_main_exp,2022.2.2,Win32,61.06497313,,,,,,,,,,,,,,,,,,masks/mask_002.jpg,,,,,,,,,,,,,,,,,,,,,,,,,,,,,,,,,,,,,,,,,,,0,3,3,1,1,,,,,,,,,,,,,,,,,,,,,,,,,,,,,,,,,,,,,,,,,,,,,,
mauriello,001,2022-11-21_24h46.54.267,Info_measure_main_exp,2022.2.2,Win32,61.06497313,,,,,,,,,,,,,,,,,,masks/mask_005.jpg,,,,,,,,,,,,,,,,,,,,,,,,,,,,,,,,,,,,,,,,,,,0,4,4,4,1,,,,,,,,,,,,,,,,,,,,,,,,,,,,,,,,,,,,,,,,,,,,,,
mauriello,001,2022-11-21_24h46.54.267,Info_measure_main_exp,2022.2.2,Win32,61.06497313,,,,,,,,,,,,,,,,,,masks/mask_005.jpg,,,,,,,,,,,,,,,,,,,,,,,,,,,,,,,,,,,,,,,,,,,,,,,,0,0,0,4,1,,,,,,,,,,,,,,,,,,,,,,,,,,,,,,,,,,,,,,,,,
mauriello,001,2022-11-21_24h46.54.267,Info_measure_main_exp,2022.2.2,Win32,61.06497313,,,,,,,,,,,,,,,,,,masks/mask_002.jpg,,,,,,,,,,,,,,,,,,,,,,,,,,,,,,,,,,,,,,,,,,,,,,,,0,1,1,1,1,,,,,,,,,,,,,,,,,,,,,,,,,,,,,,,,,,,,,,,,,
mauriello,001,2022-11-21_24h46.54.267,Info_measure_main_exp,2022.2.2,Win32,61.06497313,,,,,,,,,,,,,,,,,,masks/mask_003.jpg,,,,,,,,,,,,,,,,,,,,,,,,,,,,,,,,,,,,,,,,,,,,,,,,0,2,2,2,1,,,,,,,,,,,,,,,,,,,,,,,,,,,,,,,,,,,,,,,,,
mauriello,001,2022-11-21_24h46.54.267,Info_measure_main_exp,2022.2.2,Win32,61.06497313,,,,,,,,,,,,,,,,,,masks/mask_004.jpg,,,,,,,,,,,,,,,,,,,,,,,,,,,,,,,,,,,,,,,,,,,,,,,,0,3,3,3,1,,,,,,,,,,,,,,,,,,,,,,,,,,,,,,,,,,,,,,,,,
mauriello,001,2022-11-21_24h46.54.267,Info_measure_main_exp,2022.2.2,Win32,61.06497313,,,,,,,,,,,,,,,,,,masks/mask_001.jpg,,,,,,,,,,,,,,,,,,,,,,,,,,,,,,,,,,,,,,,,,,,,,,,,0,4,4,0,1,,,,,,,,,,,,,,,,,,,,,,,,,,,,,,,,,,,,,,,,,
mauriello,001,2022-11-21_24h46.54.267,Info_measure_main_exp,2022.2.2,Win32,61.06497313,,,,,,,,,,,,,,,,,,,,,,,,,,,,,,7,1.0326,1,,,,,,,,,,,,1,131,5,5,1,2142,present_patch/cong_131_5_a.jpg,absent_patch/patch0002142.jpg,,,,,,,,,,,,,,,,,,,,0.037962963,0.082407407,1,0,0,response1disk,18,0.007407407,-0.006481481,1,0,0,center_square,0,17,17,80,1,,,,,,,,,,,,,,,,,,,,,,,
mauriello,001,2022-11-21_24h46.54.267,Info_measure_main_exp,2022.2.2,Win32,61.06497313,,,,,,,,,,,,,,,,,,masks/mask_002.jpg,,,,,,,,,,,,,,,,,,,,,,,,,,,,,,,,,,,,,,,,,,,0,0,0,1,1,,,,,,,,,,,,,,,,,,,,,,,,,,,,,,,,,,,,,,,,,,,,,,
mauriello,001,2022-11-21_24h46.54.267,Info_measure_main_exp,2022.2.2,Win32,61.06497313,,,,,,,,,,,,,,,,,,masks/mask_001.jpg,,,,,,,,,,,,,,,,,,,,,,,,,,,,,,,,,,,,,,,,,,,0,1,1,0,1,,,,,,,,,,,,,,,,,,,,,,,,,,,,,,,,,,,,,,,,,,,,,,
mauriello,001,2022-11-21_24h46.54.267,Info_measure_main_exp,2022.2.2,Win32,61.06497313,,,,,,,,,,,,,,,,,,masks/mask_003.jpg,,,,,,,,,,,,,,,,,,,,,,,,,,,,,,,,,,,,,,,,,,,0,2,2,2,1,,,,,,,,,,,,,,,,,,,,,,,,,,,,,,,,,,,,,,,,,,,,,,
mauriello,001,2022-11-21_24h46.54.267,Info_measure_main_exp,2022.2.2,Win32,61.06497313,,,,,,,,,,,,,,,,,,masks/mask_005.jpg,,,,,,,,,,,,,,,,,,,,,,,,,,,,,,,,,,,,,,,,,,,0,3,3,4,1,,,,,,,,,,,,,,,,,,,,,,,,,,,,,,,,,,,,,,,,,,,,,,
mauriello,001,2022-11-21_24h46.54.267,Info_measure_main_exp,2022.2.2,Win32,61.06497313,,,,,,,,,,,,,,,,,,masks/mask_004.jpg,,,,,,,,,,,,,,,,,,,,,,,,,,,,,,,,,,,,,,,,,,,0,4,4,3,1,,,,,,,,,,,,,,,,,,,,,,,,,,,,,,,,,,,,,,,,,,,,,,
mauriello,001,2022-11-21_24h46.54.267,Info_measure_main_exp,2022.2.2,Win32,61.06497313,,,,,,,,,,,,,,,,,,masks/mask_001.jpg,,,,,,,,,,,,,,,,,,,,,,,,,,,,,,,,,,,,,,,,,,,,,,,,0,0,0,0,1,,,,,,,,,,,,,,,,,,,,,,,,,,,,,,,,,,,,,,,,,
mauriello,001,2022-11-21_24h46.54.267,Info_measure_main_exp,2022.2.2,Win32,61.06497313,,,,,,,,,,,,,,,,,,masks/mask_002.jpg,,,,,,,,,,,,,,,,,,,,,,,,,,,,,,,,,,,,,,,,,,,,,,,,0,1,1,1,1,,,,,,,,,,,,,,,,,,,,,,,,,,,,,,,,,,,,,,,,,
mauriello,001,2022-11-21_24h46.54.267,Info_measure_main_exp,2022.2.2,Win32,61.06497313,,,,,,,,,,,,,,,,,,masks/mask_003.jpg,,,,,,,,,,,,,,,,,,,,,,,,,,,,,,,,,,,,,,,,,,,,,,,,0,2,2,2,1,,,,,,,,,,,,,,,,,,,,,,,,,,,,,,,,,,,,,,,,,
mauriello,001,2022-11-21_24h46.54.267,Info_measure_main_exp,2022.2.2,Win32,61.06497313,,,,,,,,,,,,,,,,,,masks/mask_004.jpg,,,,,,,,,,,,,,,,,,,,,,,,,,,,,,,,,,,,,,,,,,,,,,,,0,3,3,3,1,,,,,,,,,,,,,,,,,,,,,,,,,,,,,,,,,,,,,,,,,
mauriello,001,2022-11-21_24h46.54.267,Info_measure_main_exp,2022.2.2,Win32,61.06497313,,,,,,,,,,,,,,,,,,masks/mask_005.jpg,,,,,,,,,,,,,,,,,,,,,,,,,,,,,,,,,,,,,,,,,,,,,,,,0,4,4,4,1,,,,,,,,,,,,,,,,,,,,,,,,,,,,,,,,,,,,,,,,,
mauriello,001,2022-11-21_24h46.54.267,Info_measure_main_exp,2022.2.2,Win32,61.06497313,,,,,,,,,,,,,,,,,,,,,,,,,,,,,,2,1.5997,1,,,,,,,,,,,,0,131,5,5,1974,1950,absent_patch/patch0001974.jpg,absent_patch/patch0001950.jpg,,,,,,,,,,,,,,,,,,,,-0.089814815,-0.04537037,1,0,0,response5disk,19,0.003703704,0.008333333,1,0,0,center_square,0,18,18,17,1,,,,,,,,,,,,,,,,,,,,,,,
mauriello,001,2022-11-21_24h46.54.267,Info_measure_main_exp,2022.2.2,Win32,61.06497313,,,,,,,,,,,,,,,,,,masks/mask_004.jpg,,,,,,,,,,,,,,,,,,,,,,,,,,,,,,,,,,,,,,,,,,,0,0,0,3,1,,,,,,,,,,,,,,,,,,,,,,,,,,,,,,,,,,,,,,,,,,,,,,
mauriello,001,2022-11-21_24h46.54.267,Info_measure_main_exp,2022.2.2,Win32,61.06497313,,,,,,,,,,,,,,,,,,masks/mask_003.jpg,,,,,,,,,,,,,,,,,,,,,,,,,,,,,,,,,,,,,,,,,,,0,1,1,2,1,,,,,,,,,,,,,,,,,,,,,,,,,,,,,,,,,,,,,,,,,,,,,,
mauriello,001,2022-11-21_24h46.54.267,Info_measure_main_exp,2022.2.2,Win32,61.06497313,,,,,,,,,,,,,,,,,,masks/mask_001.jpg,,,,,,,,,,,,,,,,,,,,,,,,,,,,,,,,,,,,,,,,,,,0,2,2,0,1,,,,,,,,,,,,,,,,,,,,,,,,,,,,,,,,,,,,,,,,,,,,,,
mauriello,001,2022-11-21_24h46.54.267,Info_measure_main_exp,2022.2.2,Win32,61.06497313,,,,,,,,,,,,,,,,,,masks/mask_005.jpg,,,,,,,,,,,,,,,,,,,,,,,,,,,,,,,,,,,,,,,,,,,0,3,3,4,1,,,,,,,,,,,,,,,,,,,,,,,,,,,,,,,,,,,,,,,,,,,,,,
mauriello,001,2022-11-21_24h46.54.267,Info_measure_main_exp,2022.2.2,Win32,61.06497313,,,,,,,,,,,,,,,,,,masks/mask_002.jpg,,,,,,,,,,,,,,,,,,,,,,,,,,,,,,,,,,,,,,,,,,,0,4,4,1,1,,,,,,,,,,,,,,,,,,,,,,,,,,,,,,,,,,,,,,,,,,,,,,
mauriello,001,2022-11-21_24h46.54.267,Info_measure_main_exp,2022.2.2,Win32,61.06497313,,,,,,,,,,,,,,,,,,masks/mask_004.jpg,,,,,,,,,,,,,,,,,,,,,,,,,,,,,,,,,,,,,,,,,,,,,,,,0,0,0,3,1,,,,,,,,,,,,,,,,,,,,,,,,,,,,,,,,,,,,,,,,,
mauriello,001,2022-11-21_24h46.54.267,Info_measure_main_exp,2022.2.2,Win32,61.06497313,,,,,,,,,,,,,,,,,,masks/mask_002.jpg,,,,,,,,,,,,,,,,,,,,,,,,,,,,,,,,,,,,,,,,,,,,,,,,0,1,1,1,1,,,,,,,,,,,,,,,,,,,,,,,,,,,,,,,,,,,,,,,,,
mauriello,001,2022-11-21_24h46.54.267,Info_measure_main_exp,2022.2.2,Win32,61.06497313,,,,,,,,,,,,,,,,,,masks/mask_003.jpg,,,,,,,,,,,,,,,,,,,,,,,,,,,,,,,,,,,,,,,,,,,,,,,,0,2,2,2,1,,,,,,,,,,,,,,,,,,,,,,,,,,,,,,,,,,,,,,,,,
mauriello,001,2022-11-21_24h46.54.267,Info_measure_main_exp,2022.2.2,Win32,61.06497313,,,,,,,,,,,,,,,,,,masks/mask_005.jpg,,,,,,,,,,,,,,,,,,,,,,,,,,,,,,,,,,,,,,,,,,,,,,,,0,3,3,4,1,,,,,,,,,,,,,,,,,,,,,,,,,,,,,,,,,,,,,,,,,
mauriello,001,2022-11-21_24h46.54.267,Info_measure_main_exp,2022.2.2,Win32,61.06497313,,,,,,,,,,,,,,,,,,masks/mask_001.jpg,,,,,,,,,,,,,,,,,,,,,,,,,,,,,,,,,,,,,,,,,,,,,,,,0,4,4,0,1,,,,,,,,,,,,,,,,,,,,,,,,,,,,,,,,,,,,,,,,,
mauriello,001,2022-11-21_24h46.54.267,Info_measure_main_exp,2022.2.2,Win32,61.06497313,,,,,,,,,,,,,,,,,,,,,,,,,,,,,,6,1.0831,1,,,,,,,,,,,,1,131,5,5,1,2214,present_patch/cong_131_5_a.jpg,absent_patch/patch0002214.jpg,,,,,,,,,,,,,,,,,,,,0.101851852,0.047222222,1,0,0,response1disk,20,0.003703704,0.00462963,1,0,0,center_square,0,19,19,4,1,,,,,,,,,,,,,,,,,,,,,,,
mauriello,001,2022-11-21_24h46.54.267,Info_measure_main_exp,2022.2.2,Win32,61.06497313,,,,,,,,,,,,,,,,,,masks/mask_004.jpg,,,,,,,,,,,,,,,,,,,,,,,,,,,,,,,,,,,,,,,,,,,0,0,0,3,1,,,,,,,,,,,,,,,,,,,,,,,,,,,,,,,,,,,,,,,,,,,,,,
mauriello,001,2022-11-21_24h46.54.267,Info_measure_main_exp,2022.2.2,Win32,61.06497313,,,,,,,,,,,,,,,,,,masks/mask_001.jpg,,,,,,,,,,,,,,,,,,,,,,,,,,,,,,,,,,,,,,,,,,,0,1,1,0,1,,,,,,,,,,,,,,,,,,,,,,,,,,,,,,,,,,,,,,,,,,,,,,
mauriello,001,2022-11-21_24h46.54.267,Info_measure_main_exp,2022.2.2,Win32,61.06497313,,,,,,,,,,,,,,,,,,masks/mask_005.jpg,,,,,,,,,,,,,,,,,,,,,,,,,,,,,,,,,,,,,,,,,,,0,2,2,4,1,,,,,,,,,,,,,,,,,,,,,,,,,,,,,,,,,,,,,,,,,,,,,,
mauriello,001,2022-11-21_24h46.54.267,Info_measure_main_exp,2022.2.2,Win32,61.06497313,,,,,,,,,,,,,,,,,,masks/mask_003.jpg,,,,,,,,,,,,,,,,,,,,,,,,,,,,,,,,,,,,,,,,,,,0,3,3,2,1,,,,,,,,,,,,,,,,,,,,,,,,,,,,,,,,,,,,,,,,,,,,,,
mauriello,001,2022-11-21_24h46.54.267,Info_measure_main_exp,2022.2.2,Win32,61.06497313,,,,,,,,,,,,,,,,,,masks/mask_002.jpg,,,,,,,,,,,,,,,,,,,,,,,,,,,,,,,,,,,,,,,,,,,0,4,4,1,1,,,,,,,,,,,,,,,,,,,,,,,,,,,,,,,,,,,,,,,,,,,,,,
mauriello,001,2022-11-21_24h46.54.267,Info_measure_main_exp,2022.2.2,Win32,61.06497313,,,,,,,,,,,,,,,,,,masks/mask_005.jpg,,,,,,,,,,,,,,,,,,,,,,,,,,,,,,,,,,,,,,,,,,,,,,,,0,0,0,4,1,,,,,,,,,,,,,,,,,,,,,,,,,,,,,,,,,,,,,,,,,
mauriello,001,2022-11-21_24h46.54.267,Info_measure_main_exp,2022.2.2,Win32,61.06497313,,,,,,,,,,,,,,,,,,masks/mask_002.jpg,,,,,,,,,,,,,,,,,,,,,,,,,,,,,,,,,,,,,,,,,,,,,,,,0,1,1,1,1,,,,,,,,,,,,,,,,,,,,,,,,,,,,,,,,,,,,,,,,,
mauriello,001,2022-11-21_24h46.54.267,Info_measure_main_exp,2022.2.2,Win32,61.06497313,,,,,,,,,,,,,,,,,,masks/mask_001.jpg,,,,,,,,,,,,,,,,,,,,,,,,,,,,,,,,,,,,,,,,,,,,,,,,0,2,2,0,1,,,,,,,,,,,,,,,,,,,,,,,,,,,,,,,,,,,,,,,,,
mauriello,001,2022-11-21_24h46.54.267,Info_measure_main_exp,2022.2.2,Win32,61.06497313,,,,,,,,,,,,,,,,,,masks/mask_004.jpg,,,,,,,,,,,,,,,,,,,,,,,,,,,,,,,,,,,,,,,,,,,,,,,,0,3,3,3,1,,,,,,,,,,,,,,,,,,,,,,,,,,,,,,,,,,,,,,,,,
mauriello,001,2022-11-21_24h46.54.267,Info_measure_main_exp,2022.2.2,Win32,61.06497313,,,,,,,,,,,,,,,,,,masks/mask_003.jpg,,,,,,,,,,,,,,,,,,,,,,,,,,,,,,,,,,,,,,,,,,,,,,,,0,4,4,2,1,,,,,,,,,,,,,,,,,,,,,,,,,,,,,,,,,,,,,,,,,
mauriello,001,2022-11-21_24h46.54.267,Info_measure_main_exp,2022.2.2,Win32,61.06497313,,,,,,,,,,,,,,,,,,,,,,,,,,,,,,0,0.8488,1,,,,,,,,,,,,0,131,5,5,2214,2214,absent_patch/patch0002214.jpg,absent_patch/patch0002214.jpg,,,,,,,,,,,,,,,,,,,,-0.039814815,0.092592593,1,0,0,response7disk,21,0.003703704,0.00462963,1,0,0,center_square,0,20,20,115,1,,,,,,,,,,,,,,,,,,,,,,,
mauriello,001,2022-11-21_24h46.54.267,Info_measure_main_exp,2022.2.2,Win32,61.06497313,,,,,,,,,,,,,,,,,,masks/mask_004.jpg,,,,,,,,,,,,,,,,,,,,,,,,,,,,,,,,,,,,,,,,,,,0,0,0,3,1,,,,,,,,,,,,,,,,,,,,,,,,,,,,,,,,,,,,,,,,,,,,,,
mauriello,001,2022-11-21_24h46.54.267,Info_measure_main_exp,2022.2.2,Win32,61.06497313,,,,,,,,,,,,,,,,,,masks/mask_003.jpg,,,,,,,,,,,,,,,,,,,,,,,,,,,,,,,,,,,,,,,,,,,0,1,1,2,1,,,,,,,,,,,,,,,,,,,,,,,,,,,,,,,,,,,,,,,,,,,,,,
mauriello,001,2022-11-21_24h46.54.267,Info_measure_main_exp,2022.2.2,Win32,61.06497313,,,,,,,,,,,,,,,,,,masks/mask_001.jpg,,,,,,,,,,,,,,,,,,,,,,,,,,,,,,,,,,,,,,,,,,,0,2,2,0,1,,,,,,,,,,,,,,,,,,,,,,,,,,,,,,,,,,,,,,,,,,,,,,
mauriello,001,2022-11-21_24h46.54.267,Info_measure_main_exp,2022.2.2,Win32,61.06497313,,,,,,,,,,,,,,,,,,masks/mask_005.jpg,,,,,,,,,,,,,,,,,,,,,,,,,,,,,,,,,,,,,,,,,,,0,3,3,4,1,,,,,,,,,,,,,,,,,,,,,,,,,,,,,,,,,,,,,,,,,,,,,,
mauriello,001,2022-11-21_24h46.54.267,Info_measure_main_exp,2022.2.2,Win32,61.06497313,,,,,,,,,,,,,,,,,,masks/mask_002.jpg,,,,,,,,,,,,,,,,,,,,,,,,,,,,,,,,,,,,,,,,,,,0,4,4,1,1,,,,,,,,,,,,,,,,,,,,,,,,,,,,,,,,,,,,,,,,,,,,,,
mauriello,001,2022-11-21_24h46.54.267,Info_measure_main_exp,2022.2.2,Win32,61.06497313,,,,,,,,,,,,,,,,,,masks/mask_002.jpg,,,,,,,,,,,,,,,,,,,,,,,,,,,,,,,,,,,,,,,,,,,,,,,,0,0,0,1,1,,,,,,,,,,,,,,,,,,,,,,,,,,,,,,,,,,,,,,,,,
mauriello,001,2022-11-21_24h46.54.267,Info_measure_main_exp,2022.2.2,Win32,61.06497313,,,,,,,,,,,,,,,,,,masks/mask_001.jpg,,,,,,,,,,,,,,,,,,,,,,,,,,,,,,,,,,,,,,,,,,,,,,,,0,1,1,0,1,,,,,,,,,,,,,,,,,,,,,,,,,,,,,,,,,,,,,,,,,
mauriello,001,2022-11-21_24h46.54.267,Info_measure_main_exp,2022.2.2,Win32,61.06497313,,,,,,,,,,,,,,,,,,masks/mask_005.jpg,,,,,,,,,,,,,,,,,,,,,,,,,,,,,,,,,,,,,,,,,,,,,,,,0,2,2,4,1,,,,,,,,,,,,,,,,,,,,,,,,,,,,,,,,,,,,,,,,,
mauriello,001,2022-11-21_24h46.54.267,Info_measure_main_exp,2022.2.2,Win32,61.06497313,,,,,,,,,,,,,,,,,,masks/mask_003.jpg,,,,,,,,,,,,,,,,,,,,,,,,,,,,,,,,,,,,,,,,,,,,,,,,0,3,3,2,1,,,,,,,,,,,,,,,,,,,,,,,,,,,,,,,,,,,,,,,,,
mauriello,001,2022-11-21_24h46.54.267,Info_measure_main_exp,2022.2.2,Win32,61.06497313,,,,,,,,,,,,,,,,,,masks/mask_004.jpg,,,,,,,,,,,,,,,,,,,,,,,,,,,,,,,,,,,,,,,,,,,,,,,,0,4,4,3,1,,,,,,,,,,,,,,,,,,,,,,,,,,,,,,,,,,,,,,,,,
mauriello,001,2022-11-21_24h46.54.267,Info_measure_main_exp,2022.2.2,Win32,61.06497313,,,,,,,,,,,,,,,,,,,,,,,,,,,,,,6,0.9652,1,,,,,,,,,,,,0,131,5,5,2274,2166,absent_patch/patch0002274.jpg,absent_patch/patch0002166.jpg,,,,,,,,,,,,,,,,,,,,0.066666667,0.028703704,1,0,0,response1disk,22,-0.014814815,-0.001851852,1,0,0,center_square,0,21,21,78,1,,,,,,,,,,,,,,,,,,,,,,,
mauriello,001,2022-11-21_24h46.54.267,Info_measure_main_exp,2022.2.2,Win32,61.06497313,,,,,,,,,,,,,,,,,,masks/mask_003.jpg,,,,,,,,,,,,,,,,,,,,,,,,,,,,,,,,,,,,,,,,,,,0,0,0,2,1,,,,,,,,,,,,,,,,,,,,,,,,,,,,,,,,,,,,,,,,,,,,,,
mauriello,001,2022-11-21_24h46.54.267,Info_measure_main_exp,2022.2.2,Win32,61.06497313,,,,,,,,,,,,,,,,,,masks/mask_001.jpg,,,,,,,,,,,,,,,,,,,,,,,,,,,,,,,,,,,,,,,,,,,0,1,1,0,1,,,,,,,,,,,,,,,,,,,,,,,,,,,,,,,,,,,,,,,,,,,,,,
mauriello,001,2022-11-21_24h46.54.267,Info_measure_main_exp,2022.2.2,Win32,61.06497313,,,,,,,,,,,,,,,,,,masks/mask_004.jpg,,,,,,,,,,,,,,,,,,,,,,,,,,,,,,,,,,,,,,,,,,,0,2,2,3,1,,,,,,,,,,,,,,,,,,,,,,,,,,,,,,,,,,,,,,,,,,,,,,
mauriello,001,2022-11-21_24h46.54.267,Info_measure_main_exp,2022.2.2,Win32,61.06497313,,,,,,,,,,,,,,,,,,masks/mask_005.jpg,,,,,,,,,,,,,,,,,,,,,,,,,,,,,,,,,,,,,,,,,,,0,3,3,4,1,,,,,,,,,,,,,,,,,,,,,,,,,,,,,,,,,,,,,,,,,,,,,,
mauriello,001,2022-11-21_24h46.54.267,Info_measure_main_exp,2022.2.2,Win32,61.06497313,,,,,,,,,,,,,,,,,,masks/mask_002.jpg,,,,,,,,,,,,,,,,,,,,,,,,,,,,,,,,,,,,,,,,,,,0,4,4,1,1,,,,,,,,,,,,,,,,,,,,,,,,,,,,,,,,,,,,,,,,,,,,,,
mauriello,001,2022-11-21_24h46.54.267,Info_measure_main_exp,2022.2.2,Win32,61.06497313,,,,,,,,,,,,,,,,,,masks/mask_002.jpg,,,,,,,,,,,,,,,,,,,,,,,,,,,,,,,,,,,,,,,,,,,,,,,,0,0,0,1,1,,,,,,,,,,,,,,,,,,,,,,,,,,,,,,,,,,,,,,,,,
mauriello,001,2022-11-21_24h46.54.267,Info_measure_main_exp,2022.2.2,Win32,61.06497313,,,,,,,,,,,,,,,,,,masks/mask_003.jpg,,,,,,,,,,,,,,,,,,,,,,,,,,,,,,,,,,,,,,,,,,,,,,,,0,1,1,2,1,,,,,,,,,,,,,,,,,,,,,,,,,,,,,,,,,,,,,,,,,
mauriello,001,2022-11-21_24h46.54.267,Info_measure_main_exp,2022.2.2,Win32,61.06497313,,,,,,,,,,,,,,,,,,masks/mask_005.jpg,,,,,,,,,,,,,,,,,,,,,,,,,,,,,,,,,,,,,,,,,,,,,,,,0,2,2,4,1,,,,,,,,,,,,,,,,,,,,,,,,,,,,,,,,,,,,,,,,,
mauriello,001,2022-11-21_24h46.54.267,Info_measure_main_exp,2022.2.2,Win32,61.06497313,,,,,,,,,,,,,,,,,,masks/mask_004.jpg,,,,,,,,,,,,,,,,,,,,,,,,,,,,,,,,,,,,,,,,,,,,,,,,0,3,3,3,1,,,,,,,,,,,,,,,,,,,,,,,,,,,,,,,,,,,,,,,,,
mauriello,001,2022-11-21_24h46.54.267,Info_measure_main_exp,2022.2.2,Win32,61.06497313,,,,,,,,,,,,,,,,,,masks/mask_001.jpg,,,,,,,,,,,,,,,,,,,,,,,,,,,,,,,,,,,,,,,,,,,,,,,,0,4,4,0,1,,,,,,,,,,,,,,,,,,,,,,,,,,,,,,,,,,,,,,,,,
mauriello,001,2022-11-21_24h46.54.267,Info_measure_main_exp,2022.2.2,Win32,61.06497313,,,,,,,,,,,,,,,,,,,,,,,,,,,,,,7,1.9167,1,,,,,,,,,,,,0,131,5,5,2190,2238,absent_patch/patch0002190.jpg,absent_patch/patch0002238.jpg,,,,,,,,,,,,,,,,,,,,0.061111111,0.084259259,1,0,0,response1disk,23,0,-0.006481481,1,0,0,center_square,0,22,22,53,1,,,,,,,,,,,,,,,,,,,,,,,
mauriello,001,2022-11-21_24h46.54.267,Info_measure_main_exp,2022.2.2,Win32,61.06497313,,,,,,,,,,,,,,,,,,masks/mask_001.jpg,,,,,,,,,,,,,,,,,,,,,,,,,,,,,,,,,,,,,,,,,,,0,0,0,0,1,,,,,,,,,,,,,,,,,,,,,,,,,,,,,,,,,,,,,,,,,,,,,,
mauriello,001,2022-11-21_24h46.54.267,Info_measure_main_exp,2022.2.2,Win32,61.06497313,,,,,,,,,,,,,,,,,,masks/mask_003.jpg,,,,,,,,,,,,,,,,,,,,,,,,,,,,,,,,,,,,,,,,,,,0,1,1,2,1,,,,,,,,,,,,,,,,,,,,,,,,,,,,,,,,,,,,,,,,,,,,,,
mauriello,001,2022-11-21_24h46.54.267,Info_measure_main_exp,2022.2.2,Win32,61.06497313,,,,,,,,,,,,,,,,,,masks/mask_005.jpg,,,,,,,,,,,,,,,,,,,,,,,,,,,,,,,,,,,,,,,,,,,0,2,2,4,1,,,,,,,,,,,,,,,,,,,,,,,,,,,,,,,,,,,,,,,,,,,,,,
mauriello,001,2022-11-21_24h46.54.267,Info_measure_main_exp,2022.2.2,Win32,61.06497313,,,,,,,,,,,,,,,,,,masks/mask_002.jpg,,,,,,,,,,,,,,,,,,,,,,,,,,,,,,,,,,,,,,,,,,,0,3,3,1,1,,,,,,,,,,,,,,,,,,,,,,,,,,,,,,,,,,,,,,,,,,,,,,
mauriello,001,2022-11-21_24h46.54.267,Info_measure_main_exp,2022.2.2,Win32,61.06497313,,,,,,,,,,,,,,,,,,masks/mask_004.jpg,,,,,,,,,,,,,,,,,,,,,,,,,,,,,,,,,,,,,,,,,,,0,4,4,3,1,,,,,,,,,,,,,,,,,,,,,,,,,,,,,,,,,,,,,,,,,,,,,,
mauriello,001,2022-11-21_24h46.54.267,Info_measure_main_exp,2022.2.2,Win32,61.06497313,,,,,,,,,,,,,,,,,,masks/mask_005.jpg,,,,,,,,,,,,,,,,,,,,,,,,,,,,,,,,,,,,,,,,,,,,,,,,0,0,0,4,1,,,,,,,,,,,,,,,,,,,,,,,,,,,,,,,,,,,,,,,,,
mauriello,001,2022-11-21_24h46.54.267,Info_measure_main_exp,2022.2.2,Win32,61.06497313,,,,,,,,,,,,,,,,,,masks/mask_004.jpg,,,,,,,,,,,,,,,,,,,,,,,,,,,,,,,,,,,,,,,,,,,,,,,,0,1,1,3,1,,,,,,,,,,,,,,,,,,,,,,,,,,,,,,,,,,,,,,,,,
mauriello,001,2022-11-21_24h46.54.267,Info_measure_main_exp,2022.2.2,Win32,61.06497313,,,,,,,,,,,,,,,,,,masks/mask_003.jpg,,,,,,,,,,,,,,,,,,,,,,,,,,,,,,,,,,,,,,,,,,,,,,,,0,2,2,2,1,,,,,,,,,,,,,,,,,,,,,,,,,,,,,,,,,,,,,,,,,
mauriello,001,2022-11-21_24h46.54.267,Info_measure_main_exp,2022.2.2,Win32,61.06497313,,,,,,,,,,,,,,,,,,masks/mask_002.jpg,,,,,,,,,,,,,,,,,,,,,,,,,,,,,,,,,,,,,,,,,,,,,,,,0,3,3,1,1,,,,,,,,,,,,,,,,,,,,,,,,,,,,,,,,,,,,,,,,,
mauriello,001,2022-11-21_24h46.54.267,Info_measure_main_exp,2022.2.2,Win32,61.06497313,,,,,,,,,,,,,,,,,,masks/mask_001.jpg,,,,,,,,,,,,,,,,,,,,,,,,,,,,,,,,,,,,,,,,,,,,,,,,0,4,4,0,1,,,,,,,,,,,,,,,,,,,,,,,,,,,,,,,,,,,,,,,,,
mauriello,001,2022-11-21_24h46.54.267,Info_measure_main_exp,2022.2.2,Win32,61.06497313,,,,,,,,,,,,,,,,,,,,,,,,,,,,,,4,1.3988,1,,,,,,,,,,,,0,131,5,5,2274,2238,absent_patch/patch0002274.jpg,absent_patch/patch0002238.jpg,,,,,,,,,,,,,,,,,,,,0.030555556,-0.128703704,1,0,0,response3disk,24,0,0.002777778,1,0,0,center_square,0,23,23,91,1,,,,,,,,,,,,,,,,,,,,,,,
mauriello,001,2022-11-21_24h46.54.267,Info_measure_main_exp,2022.2.2,Win32,61.06497313,,,,,,,,,,,,,,,,,,masks/mask_003.jpg,,,,,,,,,,,,,,,,,,,,,,,,,,,,,,,,,,,,,,,,,,,0,0,0,2,1,,,,,,,,,,,,,,,,,,,,,,,,,,,,,,,,,,,,,,,,,,,,,,
mauriello,001,2022-11-21_24h46.54.267,Info_measure_main_exp,2022.2.2,Win32,61.06497313,,,,,,,,,,,,,,,,,,masks/mask_004.jpg,,,,,,,,,,,,,,,,,,,,,,,,,,,,,,,,,,,,,,,,,,,0,1,1,3,1,,,,,,,,,,,,,,,,,,,,,,,,,,,,,,,,,,,,,,,,,,,,,,
mauriello,001,2022-11-21_24h46.54.267,Info_measure_main_exp,2022.2.2,Win32,61.06497313,,,,,,,,,,,,,,,,,,masks/mask_005.jpg,,,,,,,,,,,,,,,,,,,,,,,,,,,,,,,,,,,,,,,,,,,0,2,2,4,1,,,,,,,,,,,,,,,,,,,,,,,,,,,,,,,,,,,,,,,,,,,,,,
mauriello,001,2022-11-21_24h46.54.267,Info_measure_main_exp,2022.2.2,Win32,61.06497313,,,,,,,,,,,,,,,,,,masks/mask_001.jpg,,,,,,,,,,,,,,,,,,,,,,,,,,,,,,,,,,,,,,,,,,,0,3,3,0,1,,,,,,,,,,,,,,,,,,,,,,,,,,,,,,,,,,,,,,,,,,,,,,
mauriello,001,2022-11-21_24h46.54.267,Info_measure_main_exp,2022.2.2,Win32,61.06497313,,,,,,,,,,,,,,,,,,masks/mask_002.jpg,,,,,,,,,,,,,,,,,,,,,,,,,,,,,,,,,,,,,,,,,,,0,4,4,1,1,,,,,,,,,,,,,,,,,,,,,,,,,,,,,,,,,,,,,,,,,,,,,,
mauriello,001,2022-11-21_24h46.54.267,Info_measure_main_exp,2022.2.2,Win32,61.06497313,,,,,,,,,,,,,,,,,,masks/mask_001.jpg,,,,,,,,,,,,,,,,,,,,,,,,,,,,,,,,,,,,,,,,,,,,,,,,0,0,0,0,1,,,,,,,,,,,,,,,,,,,,,,,,,,,,,,,,,,,,,,,,,
mauriello,001,2022-11-21_24h46.54.267,Info_measure_main_exp,2022.2.2,Win32,61.06497313,,,,,,,,,,,,,,,,,,masks/mask_005.jpg,,,,,,,,,,,,,,,,,,,,,,,,,,,,,,,,,,,,,,,,,,,,,,,,0,1,1,4,1,,,,,,,,,,,,,,,,,,,,,,,,,,,,,,,,,,,,,,,,,
mauriello,001,2022-11-21_24h46.54.267,Info_measure_main_exp,2022.2.2,Win32,61.06497313,,,,,,,,,,,,,,,,,,masks/mask_004.jpg,,,,,,,,,,,,,,,,,,,,,,,,,,,,,,,,,,,,,,,,,,,,,,,,0,2,2,3,1,,,,,,,,,,,,,,,,,,,,,,,,,,,,,,,,,,,,,,,,,
mauriello,001,2022-11-21_24h46.54.267,Info_measure_main_exp,2022.2.2,Win32,61.06497313,,,,,,,,,,,,,,,,,,masks/mask_002.jpg,,,,,,,,,,,,,,,,,,,,,,,,,,,,,,,,,,,,,,,,,,,,,,,,0,3,3,1,1,,,,,,,,,,,,,,,,,,,,,,,,,,,,,,,,,,,,,,,,,
mauriello,001,2022-11-21_24h46.54.267,Info_measure_main_exp,2022.2.2,Win32,61.06497313,,,,,,,,,,,,,,,,,,masks/mask_003.jpg,,,,,,,,,,,,,,,,,,,,,,,,,,,,,,,,,,,,,,,,,,,,,,,,0,4,4,2,1,,,,,,,,,,,,,,,,,,,,,,,,,,,,,,,,,,,,,,,,,
mauriello,001,2022-11-21_24h46.54.267,Info_measure_main_exp,2022.2.2,Win32,61.06497313,,,,,,,,,,,,,,,,,,,,,,,,,,,,,,6,1.2991,1,,,,,,,,,,,,0,131,5,5,2082,2166,absent_patch/patch0002082.jpg,absent_patch/patch0002166.jpg,,,,,,,,,,,,,,,,,,,,0.069444444,0.048148148,1,0,0,response1disk,25,0.000925926,0.00462963,1,0,0,center_square,0,24,24,43,1,,,,,,,,,,,,,,,,,,,,,,,
mauriello,001,2022-11-21_24h46.54.267,Info_measure_main_exp,2022.2.2,Win32,61.06497313,,,,,,,,,,,,,,,,,,masks/mask_004.jpg,,,,,,,,,,,,,,,,,,,,,,,,,,,,,,,,,,,,,,,,,,,0,0,0,3,1,,,,,,,,,,,,,,,,,,,,,,,,,,,,,,,,,,,,,,,,,,,,,,
mauriello,001,2022-11-21_24h46.54.267,Info_measure_main_exp,2022.2.2,Win32,61.06497313,,,,,,,,,,,,,,,,,,masks/mask_002.jpg,,,,,,,,,,,,,,,,,,,,,,,,,,,,,,,,,,,,,,,,,,,0,1,1,1,1,,,,,,,,,,,,,,,,,,,,,,,,,,,,,,,,,,,,,,,,,,,,,,
mauriello,001,2022-11-21_24h46.54.267,Info_measure_main_exp,2022.2.2,Win32,61.06497313,,,,,,,,,,,,,,,,,,masks/mask_001.jpg,,,,,,,,,,,,,,,,,,,,,,,,,,,,,,,,,,,,,,,,,,,0,2,2,0,1,,,,,,,,,,,,,,,,,,,,,,,,,,,,,,,,,,,,,,,,,,,,,,
mauriello,001,2022-11-21_24h46.54.267,Info_measure_main_exp,2022.2.2,Win32,61.06497313,,,,,,,,,,,,,,,,,,masks/mask_003.jpg,,,,,,,,,,,,,,,,,,,,,,,,,,,,,,,,,,,,,,,,,,,0,3,3,2,1,,,,,,,,,,,,,,,,,,,,,,,,,,,,,,,,,,,,,,,,,,,,,,
mauriello,001,2022-11-21_24h46.54.267,Info_measure_main_exp,2022.2.2,Win32,61.06497313,,,,,,,,,,,,,,,,,,masks/mask_005.jpg,,,,,,,,,,,,,,,,,,,,,,,,,,,,,,,,,,,,,,,,,,,0,4,4,4,1,,,,,,,,,,,,,,,,,,,,,,,,,,,,,,,,,,,,,,,,,,,,,,
mauriello,001,2022-11-21_24h46.54.267,Info_measure_main_exp,2022.2.2,Win32,61.06497313,,,,,,,,,,,,,,,,,,masks/mask_005.jpg,,,,,,,,,,,,,,,,,,,,,,,,,,,,,,,,,,,,,,,,,,,,,,,,0,0,0,4,1,,,,,,,,,,,,,,,,,,,,,,,,,,,,,,,,,,,,,,,,,
mauriello,001,2022-11-21_24h46.54.267,Info_measure_main_exp,2022.2.2,Win32,61.06497313,,,,,,,,,,,,,,,,,,masks/mask_002.jpg,,,,,,,,,,,,,,,,,,,,,,,,,,,,,,,,,,,,,,,,,,,,,,,,0,1,1,1,1,,,,,,,,,,,,,,,,,,,,,,,,,,,,,,,,,,,,,,,,,
mauriello,001,2022-11-21_24h46.54.267,Info_measure_main_exp,2022.2.2,Win32,61.06497313,,,,,,,,,,,,,,,,,,masks/mask_004.jpg,,,,,,,,,,,,,,,,,,,,,,,,,,,,,,,,,,,,,,,,,,,,,,,,0,2,2,3,1,,,,,,,,,,,,,,,,,,,,,,,,,,,,,,,,,,,,,,,,,
mauriello,001,2022-11-21_24h46.54.267,Info_measure_main_exp,2022.2.2,Win32,61.06497313,,,,,,,,,,,,,,,,,,masks/mask_003.jpg,,,,,,,,,,,,,,,,,,,,,,,,,,,,,,,,,,,,,,,,,,,,,,,,0,3,3,2,1,,,,,,,,,,,,,,,,,,,,,,,,,,,,,,,,,,,,,,,,,
mauriello,001,2022-11-21_24h46.54.267,Info_measure_main_exp,2022.2.2,Win32,61.06497313,,,,,,,,,,,,,,,,,,masks/mask_001.jpg,,,,,,,,,,,,,,,,,,,,,,,,,,,,,,,,,,,,,,,,,,,,,,,,0,4,4,0,1,,,,,,,,,,,,,,,,,,,,,,,,,,,,,,,,,,,,,,,,,
mauriello,001,2022-11-21_24h46.54.267,Info_measure_main_exp,2022.2.2,Win32,61.06497313,,,,,,,,,,,,,,,,,,,,,,,,,,,,,,7,0.983,1,,,,,,,,,,,,0,131,5,5,2214,2082,absent_patch/patch0002214.jpg,absent_patch/patch0002082.jpg,,,,,,,,,,,,,,,,,,,,0.043518519,0.087037037,1,0,0,response1disk,26,0.005555556,-0.00462963,1,0,0,center_square,0,25,25,103,1,,,,,,,,,,,,,,,,,,,,,,,
mauriello,001,2022-11-21_24h46.54.267,Info_measure_main_exp,2022.2.2,Win32,61.06497313,,,,,,,,,,,,,,,,,,masks/mask_005.jpg,,,,,,,,,,,,,,,,,,,,,,,,,,,,,,,,,,,,,,,,,,,0,0,0,4,1,,,,,,,,,,,,,,,,,,,,,,,,,,,,,,,,,,,,,,,,,,,,,,
mauriello,001,2022-11-21_24h46.54.267,Info_measure_main_exp,2022.2.2,Win32,61.06497313,,,,,,,,,,,,,,,,,,masks/mask_004.jpg,,,,,,,,,,,,,,,,,,,,,,,,,,,,,,,,,,,,,,,,,,,0,1,1,3,1,,,,,,,,,,,,,,,,,,,,,,,,,,,,,,,,,,,,,,,,,,,,,,
mauriello,001,2022-11-21_24h46.54.267,Info_measure_main_exp,2022.2.2,Win32,61.06497313,,,,,,,,,,,,,,,,,,masks/mask_002.jpg,,,,,,,,,,,,,,,,,,,,,,,,,,,,,,,,,,,,,,,,,,,0,2,2,1,1,,,,,,,,,,,,,,,,,,,,,,,,,,,,,,,,,,,,,,,,,,,,,,
mauriello,001,2022-11-21_24h46.54.267,Info_measure_main_exp,2022.2.2,Win32,61.06497313,,,,,,,,,,,,,,,,,,masks/mask_001.jpg,,,,,,,,,,,,,,,,,,,,,,,,,,,,,,,,,,,,,,,,,,,0,3,3,0,1,,,,,,,,,,,,,,,,,,,,,,,,,,,,,,,,,,,,,,,,,,,,,,
mauriello,001,2022-11-21_24h46.54.267,Info_measure_main_exp,2022.2.2,Win32,61.06497313,,,,,,,,,,,,,,,,,,masks/mask_003.jpg,,,,,,,,,,,,,,,,,,,,,,,,,,,,,,,,,,,,,,,,,,,0,4,4,2,1,,,,,,,,,,,,,,,,,,,,,,,,,,,,,,,,,,,,,,,,,,,,,,
mauriello,001,2022-11-21_24h46.54.267,Info_measure_main_exp,2022.2.2,Win32,61.06497313,,,,,,,,,,,,,,,,,,masks/mask_004.jpg,,,,,,,,,,,,,,,,,,,,,,,,,,,,,,,,,,,,,,,,,,,,,,,,0,0,0,3,1,,,,,,,,,,,,,,,,,,,,,,,,,,,,,,,,,,,,,,,,,
mauriello,001,2022-11-21_24h46.54.267,Info_measure_main_exp,2022.2.2,Win32,61.06497313,,,,,,,,,,,,,,,,,,masks/mask_001.jpg,,,,,,,,,,,,,,,,,,,,,,,,,,,,,,,,,,,,,,,,,,,,,,,,0,1,1,0,1,,,,,,,,,,,,,,,,,,,,,,,,,,,,,,,,,,,,,,,,,
mauriello,001,2022-11-21_24h46.54.267,Info_measure_main_exp,2022.2.2,Win32,61.06497313,,,,,,,,,,,,,,,,,,masks/mask_002.jpg,,,,,,,,,,,,,,,,,,,,,,,,,,,,,,,,,,,,,,,,,,,,,,,,0,2,2,1,1,,,,,,,,,,,,,,,,,,,,,,,,,,,,,,,,,,,,,,,,,
mauriello,001,2022-11-21_24h46.54.267,Info_measure_main_exp,2022.2.2,Win32,61.06497313,,,,,,,,,,,,,,,,,,masks/mask_003.jpg,,,,,,,,,,,,,,,,,,,,,,,,,,,,,,,,,,,,,,,,,,,,,,,,0,3,3,2,1,,,,,,,,,,,,,,,,,,,,,,,,,,,,,,,,,,,,,,,,,
mauriello,001,2022-11-21_24h46.54.267,Info_measure_main_exp,2022.2.2,Win32,61.06497313,,,,,,,,,,,,,,,,,,masks/mask_005.jpg,,,,,,,,,,,,,,,,,,,,,,,,,,,,,,,,,,,,,,,,,,,,,,,,0,4,4,4,1,,,,,,,,,,,,,,,,,,,,,,,,,,,,,,,,,,,,,,,,,
mauriello,001,2022-11-21_24h46.54.267,Info_measure_main_exp,2022.2.2,Win32,61.06497313,,,,,,,,,,,,,,,,,,,,,,,,,,,,,,7,1.1669,1,,,,,,,,,,,,0,131,5,5,1974,2250,absent_patch/patch0001974.jpg,absent_patch/patch0002250.jpg,,,,,,,,,,,,,,,,,,,,0.039814815,0.066666667,1,0,0,response1disk,27,-0.000925926,0.014814815,1,0,0,center_square,0,26,26,55,1,,,,,,,,,,,,,,,,,,,,,,,
mauriello,001,2022-11-21_24h46.54.267,Info_measure_main_exp,2022.2.2,Win32,61.06497313,,,,,,,,,,,,,,,,,,masks/mask_003.jpg,,,,,,,,,,,,,,,,,,,,,,,,,,,,,,,,,,,,,,,,,,,0,0,0,2,1,,,,,,,,,,,,,,,,,,,,,,,,,,,,,,,,,,,,,,,,,,,,,,
mauriello,001,2022-11-21_24h46.54.267,Info_measure_main_exp,2022.2.2,Win32,61.06497313,,,,,,,,,,,,,,,,,,masks/mask_004.jpg,,,,,,,,,,,,,,,,,,,,,,,,,,,,,,,,,,,,,,,,,,,0,1,1,3,1,,,,,,,,,,,,,,,,,,,,,,,,,,,,,,,,,,,,,,,,,,,,,,
mauriello,001,2022-11-21_24h46.54.267,Info_measure_main_exp,2022.2.2,Win32,61.06497313,,,,,,,,,,,,,,,,,,masks/mask_001.jpg,,,,,,,,,,,,,,,,,,,,,,,,,,,,,,,,,,,,,,,,,,,0,2,2,0,1,,,,,,,,,,,,,,,,,,,,,,,,,,,,,,,,,,,,,,,,,,,,,,
mauriello,001,2022-11-21_24h46.54.267,Info_measure_main_exp,2022.2.2,Win32,61.06497313,,,,,,,,,,,,,,,,,,masks/mask_002.jpg,,,,,,,,,,,,,,,,,,,,,,,,,,,,,,,,,,,,,,,,,,,0,3,3,1,1,,,,,,,,,,,,,,,,,,,,,,,,,,,,,,,,,,,,,,,,,,,,,,
mauriello,001,2022-11-21_24h46.54.267,Info_measure_main_exp,2022.2.2,Win32,61.06497313,,,,,,,,,,,,,,,,,,masks/mask_005.jpg,,,,,,,,,,,,,,,,,,,,,,,,,,,,,,,,,,,,,,,,,,,0,4,4,4,1,,,,,,,,,,,,,,,,,,,,,,,,,,,,,,,,,,,,,,,,,,,,,,
mauriello,001,2022-11-21_24h46.54.267,Info_measure_main_exp,2022.2.2,Win32,61.06497313,,,,,,,,,,,,,,,,,,masks/mask_001.jpg,,,,,,,,,,,,,,,,,,,,,,,,,,,,,,,,,,,,,,,,,,,,,,,,0,0,0,0,1,,,,,,,,,,,,,,,,,,,,,,,,,,,,,,,,,,,,,,,,,
mauriello,001,2022-11-21_24h46.54.267,Info_measure_main_exp,2022.2.2,Win32,61.06497313,,,,,,,,,,,,,,,,,,masks/mask_005.jpg,,,,,,,,,,,,,,,,,,,,,,,,,,,,,,,,,,,,,,,,,,,,,,,,0,1,1,4,1,,,,,,,,,,,,,,,,,,,,,,,,,,,,,,,,,,,,,,,,,
mauriello,001,2022-11-21_24h46.54.267,Info_measure_main_exp,2022.2.2,Win32,61.06497313,,,,,,,,,,,,,,,,,,masks/mask_004.jpg,,,,,,,,,,,,,,,,,,,,,,,,,,,,,,,,,,,,,,,,,,,,,,,,0,2,2,3,1,,,,,,,,,,,,,,,,,,,,,,,,,,,,,,,,,,,,,,,,,
mauriello,001,2022-11-21_24h46.54.267,Info_measure_main_exp,2022.2.2,Win32,61.06497313,,,,,,,,,,,,,,,,,,masks/mask_003.jpg,,,,,,,,,,,,,,,,,,,,,,,,,,,,,,,,,,,,,,,,,,,,,,,,0,3,3,2,1,,,,,,,,,,,,,,,,,,,,,,,,,,,,,,,,,,,,,,,,,
mauriello,001,2022-11-21_24h46.54.267,Info_measure_main_exp,2022.2.2,Win32,61.06497313,,,,,,,,,,,,,,,,,,masks/mask_002.jpg,,,,,,,,,,,,,,,,,,,,,,,,,,,,,,,,,,,,,,,,,,,,,,,,0,4,4,1,1,,,,,,,,,,,,,,,,,,,,,,,,,,,,,,,,,,,,,,,,,
mauriello,001,2022-11-21_24h46.54.267,Info_measure_main_exp,2022.2.2,Win32,61.06497313,,,,,,,,,,,,,,,,,,,,,,,,,,,,,,7,0.7498,1,,,,,,,,,,,,0,131,5,5,2298,2274,absent_patch/patch0002298.jpg,absent_patch/patch0002274.jpg,,,,,,,,,,,,,,,,,,,,0.02962963,0.074074074,1,0,0,response1disk,28,0.006481481,0.005555556,1,0,0,center_square,0,27,27,1,1,,,,,,,,,,,,,,,,,,,,,,,
mauriello,001,2022-11-21_24h46.54.267,Info_measure_main_exp,2022.2.2,Win32,61.06497313,,,,,,,,,,,,,,,,,,masks/mask_005.jpg,,,,,,,,,,,,,,,,,,,,,,,,,,,,,,,,,,,,,,,,,,,0,0,0,4,1,,,,,,,,,,,,,,,,,,,,,,,,,,,,,,,,,,,,,,,,,,,,,,
mauriello,001,2022-11-21_24h46.54.267,Info_measure_main_exp,2022.2.2,Win32,61.06497313,,,,,,,,,,,,,,,,,,masks/mask_002.jpg,,,,,,,,,,,,,,,,,,,,,,,,,,,,,,,,,,,,,,,,,,,0,1,1,1,1,,,,,,,,,,,,,,,,,,,,,,,,,,,,,,,,,,,,,,,,,,,,,,
mauriello,001,2022-11-21_24h46.54.267,Info_measure_main_exp,2022.2.2,Win32,61.06497313,,,,,,,,,,,,,,,,,,masks/mask_001.jpg,,,,,,,,,,,,,,,,,,,,,,,,,,,,,,,,,,,,,,,,,,,0,2,2,0,1,,,,,,,,,,,,,,,,,,,,,,,,,,,,,,,,,,,,,,,,,,,,,,
mauriello,001,2022-11-21_24h46.54.267,Info_measure_main_exp,2022.2.2,Win32,61.06497313,,,,,,,,,,,,,,,,,,masks/mask_003.jpg,,,,,,,,,,,,,,,,,,,,,,,,,,,,,,,,,,,,,,,,,,,0,3,3,2,1,,,,,,,,,,,,,,,,,,,,,,,,,,,,,,,,,,,,,,,,,,,,,,
mauriello,001,2022-11-21_24h46.54.267,Info_measure_main_exp,2022.2.2,Win32,61.06497313,,,,,,,,,,,,,,,,,,masks/mask_004.jpg,,,,,,,,,,,,,,,,,,,,,,,,,,,,,,,,,,,,,,,,,,,0,4,4,3,1,,,,,,,,,,,,,,,,,,,,,,,,,,,,,,,,,,,,,,,,,,,,,,
mauriello,001,2022-11-21_24h46.54.267,Info_measure_main_exp,2022.2.2,Win32,61.06497313,,,,,,,,,,,,,,,,,,masks/mask_002.jpg,,,,,,,,,,,,,,,,,,,,,,,,,,,,,,,,,,,,,,,,,,,,,,,,0,0,0,1,1,,,,,,,,,,,,,,,,,,,,,,,,,,,,,,,,,,,,,,,,,
mauriello,001,2022-11-21_24h46.54.267,Info_measure_main_exp,2022.2.2,Win32,61.06497313,,,,,,,,,,,,,,,,,,masks/mask_005.jpg,,,,,,,,,,,,,,,,,,,,,,,,,,,,,,,,,,,,,,,,,,,,,,,,0,1,1,4,1,,,,,,,,,,,,,,,,,,,,,,,,,,,,,,,,,,,,,,,,,
mauriello,001,2022-11-21_24h46.54.267,Info_measure_main_exp,2022.2.2,Win32,61.06497313,,,,,,,,,,,,,,,,,,masks/mask_001.jpg,,,,,,,,,,,,,,,,,,,,,,,,,,,,,,,,,,,,,,,,,,,,,,,,0,2,2,0,1,,,,,,,,,,,,,,,,,,,,,,,,,,,,,,,,,,,,,,,,,
mauriello,001,2022-11-21_24h46.54.267,Info_measure_main_exp,2022.2.2,Win32,61.06497313,,,,,,,,,,,,,,,,,,masks/mask_004.jpg,,,,,,,,,,,,,,,,,,,,,,,,,,,,,,,,,,,,,,,,,,,,,,,,0,3,3,3,1,,,,,,,,,,,,,,,,,,,,,,,,,,,,,,,,,,,,,,,,,
mauriello,001,2022-11-21_24h46.54.267,Info_measure_main_exp,2022.2.2,Win32,61.06497313,,,,,,,,,,,,,,,,,,masks/mask_003.jpg,,,,,,,,,,,,,,,,,,,,,,,,,,,,,,,,,,,,,,,,,,,,,,,,0,4,4,2,1,,,,,,,,,,,,,,,,,,,,,,,,,,,,,,,,,,,,,,,,,
mauriello,001,2022-11-21_24h46.54.267,Info_measure_main_exp,2022.2.2,Win32,61.06497313,,,,,,,,,,,,,,,,,,,,,,,,,,,,,,6,1.9494,1,,,,,,,,,,,,0,131,5,5,2250,2298,absent_patch/patch0002250.jpg,absent_patch/patch0002298.jpg,,,,,,,,,,,,,,,,,,,,0.065740741,0.035185185,1,0,0,response1disk,29,0.011111111,-0.003703704,1,0,0,center_square,0,28,28,59,1,,,,,,,,,,,,,,,,,,,,,,,
mauriello,001,2022-11-21_24h46.54.267,Info_measure_main_exp,2022.2.2,Win32,61.06497313,,,,,,,,,,,,,,,,,,masks/mask_002.jpg,,,,,,,,,,,,,,,,,,,,,,,,,,,,,,,,,,,,,,,,,,,0,0,0,1,1,,,,,,,,,,,,,,,,,,,,,,,,,,,,,,,,,,,,,,,,,,,,,,
mauriello,001,2022-11-21_24h46.54.267,Info_measure_main_exp,2022.2.2,Win32,61.06497313,,,,,,,,,,,,,,,,,,masks/mask_005.jpg,,,,,,,,,,,,,,,,,,,,,,,,,,,,,,,,,,,,,,,,,,,0,1,1,4,1,,,,,,,,,,,,,,,,,,,,,,,,,,,,,,,,,,,,,,,,,,,,,,
mauriello,001,2022-11-21_24h46.54.267,Info_measure_main_exp,2022.2.2,Win32,61.06497313,,,,,,,,,,,,,,,,,,masks/mask_004.jpg,,,,,,,,,,,,,,,,,,,,,,,,,,,,,,,,,,,,,,,,,,,0,2,2,3,1,,,,,,,,,,,,,,,,,,,,,,,,,,,,,,,,,,,,,,,,,,,,,,
mauriello,001,2022-11-21_24h46.54.267,Info_measure_main_exp,2022.2.2,Win32,61.06497313,,,,,,,,,,,,,,,,,,masks/mask_001.jpg,,,,,,,,,,,,,,,,,,,,,,,,,,,,,,,,,,,,,,,,,,,0,3,3,0,1,,,,,,,,,,,,,,,,,,,,,,,,,,,,,,,,,,,,,,,,,,,,,,
mauriello,001,2022-11-21_24h46.54.267,Info_measure_main_exp,2022.2.2,Win32,61.06497313,,,,,,,,,,,,,,,,,,masks/mask_003.jpg,,,,,,,,,,,,,,,,,,,,,,,,,,,,,,,,,,,,,,,,,,,0,4,4,2,1,,,,,,,,,,,,,,,,,,,,,,,,,,,,,,,,,,,,,,,,,,,,,,
mauriello,001,2022-11-21_24h46.54.267,Info_measure_main_exp,2022.2.2,Win32,61.06497313,,,,,,,,,,,,,,,,,,masks/mask_001.jpg,,,,,,,,,,,,,,,,,,,,,,,,,,,,,,,,,,,,,,,,,,,,,,,,0,0,0,0,1,,,,,,,,,,,,,,,,,,,,,,,,,,,,,,,,,,,,,,,,,
mauriello,001,2022-11-21_24h46.54.267,Info_measure_main_exp,2022.2.2,Win32,61.06497313,,,,,,,,,,,,,,,,,,masks/mask_005.jpg,,,,,,,,,,,,,,,,,,,,,,,,,,,,,,,,,,,,,,,,,,,,,,,,0,1,1,4,1,,,,,,,,,,,,,,,,,,,,,,,,,,,,,,,,,,,,,,,,,
mauriello,001,2022-11-21_24h46.54.267,Info_measure_main_exp,2022.2.2,Win32,61.06497313,,,,,,,,,,,,,,,,,,masks/mask_002.jpg,,,,,,,,,,,,,,,,,,,,,,,,,,,,,,,,,,,,,,,,,,,,,,,,0,2,2,1,1,,,,,,,,,,,,,,,,,,,,,,,,,,,,,,,,,,,,,,,,,
mauriello,001,2022-11-21_24h46.54.267,Info_measure_main_exp,2022.2.2,Win32,61.06497313,,,,,,,,,,,,,,,,,,masks/mask_004.jpg,,,,,,,,,,,,,,,,,,,,,,,,,,,,,,,,,,,,,,,,,,,,,,,,0,3,3,3,1,,,,,,,,,,,,,,,,,,,,,,,,,,,,,,,,,,,,,,,,,
mauriello,001,2022-11-21_24h46.54.267,Info_measure_main_exp,2022.2.2,Win32,61.06497313,,,,,,,,,,,,,,,,,,masks/mask_003.jpg,,,,,,,,,,,,,,,,,,,,,,,,,,,,,,,,,,,,,,,,,,,,,,,,0,4,4,2,1,,,,,,,,,,,,,,,,,,,,,,,,,,,,,,,,,,,,,,,,,
mauriello,001,2022-11-21_24h46.54.267,Info_measure_main_exp,2022.2.2,Win32,61.06497313,,,,,,,,,,,,,,,,,,,,,,,,,,,,,,7,1.0666,1,,,,,,,,,,,,0,131,5,5,2190,1974,absent_patch/patch0002190.jpg,absent_patch/patch0001974.jpg,,,,,,,,,,,,,,,,,,,,0.039814815,0.063888889,1,0,0,response1disk,30,-0.000925926,-0.011111111,1,0,0,center_square,0,29,29,119,1,,,,,,,,,,,,,,,,,,,,,,,
mauriello,001,2022-11-21_24h46.54.267,Info_measure_main_exp,2022.2.2,Win32,61.06497313,,,,,,,,,,,,,,,,,,masks/mask_002.jpg,,,,,,,,,,,,,,,,,,,,,,,,,,,,,,,,,,,,,,,,,,,0,0,0,1,1,,,,,,,,,,,,,,,,,,,,,,,,,,,,,,,,,,,,,,,,,,,,,,
mauriello,001,2022-11-21_24h46.54.267,Info_measure_main_exp,2022.2.2,Win32,61.06497313,,,,,,,,,,,,,,,,,,masks/mask_004.jpg,,,,,,,,,,,,,,,,,,,,,,,,,,,,,,,,,,,,,,,,,,,0,1,1,3,1,,,,,,,,,,,,,,,,,,,,,,,,,,,,,,,,,,,,,,,,,,,,,,
mauriello,001,2022-11-21_24h46.54.267,Info_measure_main_exp,2022.2.2,Win32,61.06497313,,,,,,,,,,,,,,,,,,masks/mask_001.jpg,,,,,,,,,,,,,,,,,,,,,,,,,,,,,,,,,,,,,,,,,,,0,2,2,0,1,,,,,,,,,,,,,,,,,,,,,,,,,,,,,,,,,,,,,,,,,,,,,,
mauriello,001,2022-11-21_24h46.54.267,Info_measure_main_exp,2022.2.2,Win32,61.06497313,,,,,,,,,,,,,,,,,,masks/mask_005.jpg,,,,,,,,,,,,,,,,,,,,,,,,,,,,,,,,,,,,,,,,,,,0,3,3,4,1,,,,,,,,,,,,,,,,,,,,,,,,,,,,,,,,,,,,,,,,,,,,,,
mauriello,001,2022-11-21_24h46.54.267,Info_measure_main_exp,2022.2.2,Win32,61.06497313,,,,,,,,,,,,,,,,,,masks/mask_003.jpg,,,,,,,,,,,,,,,,,,,,,,,,,,,,,,,,,,,,,,,,,,,0,4,4,2,1,,,,,,,,,,,,,,,,,,,,,,,,,,,,,,,,,,,,,,,,,,,,,,
mauriello,001,2022-11-21_24h46.54.267,Info_measure_main_exp,2022.2.2,Win32,61.06497313,,,,,,,,,,,,,,,,,,masks/mask_001.jpg,,,,,,,,,,,,,,,,,,,,,,,,,,,,,,,,,,,,,,,,,,,,,,,,0,0,0,0,1,,,,,,,,,,,,,,,,,,,,,,,,,,,,,,,,,,,,,,,,,
mauriello,001,2022-11-21_24h46.54.267,Info_measure_main_exp,2022.2.2,Win32,61.06497313,,,,,,,,,,,,,,,,,,masks/mask_005.jpg,,,,,,,,,,,,,,,,,,,,,,,,,,,,,,,,,,,,,,,,,,,,,,,,0,1,1,4,1,,,,,,,,,,,,,,,,,,,,,,,,,,,,,,,,,,,,,,,,,
mauriello,001,2022-11-21_24h46.54.267,Info_measure_main_exp,2022.2.2,Win32,61.06497313,,,,,,,,,,,,,,,,,,masks/mask_004.jpg,,,,,,,,,,,,,,,,,,,,,,,,,,,,,,,,,,,,,,,,,,,,,,,,0,2,2,3,1,,,,,,,,,,,,,,,,,,,,,,,,,,,,,,,,,,,,,,,,,
mauriello,001,2022-11-21_24h46.54.267,Info_measure_main_exp,2022.2.2,Win32,61.06497313,,,,,,,,,,,,,,,,,,masks/mask_003.jpg,,,,,,,,,,,,,,,,,,,,,,,,,,,,,,,,,,,,,,,,,,,,,,,,0,3,3,2,1,,,,,,,,,,,,,,,,,,,,,,,,,,,,,,,,,,,,,,,,,
mauriello,001,2022-11-21_24h46.54.267,Info_measure_main_exp,2022.2.2,Win32,61.06497313,,,,,,,,,,,,,,,,,,masks/mask_002.jpg,,,,,,,,,,,,,,,,,,,,,,,,,,,,,,,,,,,,,,,,,,,,,,,,0,4,4,1,1,,,,,,,,,,,,,,,,,,,,,,,,,,,,,,,,,,,,,,,,,
mauriello,001,2022-11-21_24h46.54.267,Info_measure_main_exp,2022.2.2,Win32,61.06497313,,,,,,,,,,,,,,,,,,,,,,,,,,,,,,0,1.0162,1,,,,,,,,,,,,0,131,5,5,2178,2178,absent_patch/patch0002178.jpg,absent_patch/patch0002178.jpg,,,,,,,,,,,,,,,,,,,,-0.028703704,0.065740741,1,0,0,response7disk,31,0,0,1,0,0,center_square,0,30,30,98,1,,,,,,,,,,,,,,,,,,,,,,,
mauriello,001,2022-11-21_24h46.54.267,Info_measure_main_exp,2022.2.2,Win32,61.06497313,,,,,,,,,,,,,,,,,,masks/mask_001.jpg,,,,,,,,,,,,,,,,,,,,,,,,,,,,,,,,,,,,,,,,,,,0,0,0,0,1,,,,,,,,,,,,,,,,,,,,,,,,,,,,,,,,,,,,,,,,,,,,,,
mauriello,001,2022-11-21_24h46.54.267,Info_measure_main_exp,2022.2.2,Win32,61.06497313,,,,,,,,,,,,,,,,,,masks/mask_002.jpg,,,,,,,,,,,,,,,,,,,,,,,,,,,,,,,,,,,,,,,,,,,0,1,1,1,1,,,,,,,,,,,,,,,,,,,,,,,,,,,,,,,,,,,,,,,,,,,,,,
mauriello,001,2022-11-21_24h46.54.267,Info_measure_main_exp,2022.2.2,Win32,61.06497313,,,,,,,,,,,,,,,,,,masks/mask_003.jpg,,,,,,,,,,,,,,,,,,,,,,,,,,,,,,,,,,,,,,,,,,,0,2,2,2,1,,,,,,,,,,,,,,,,,,,,,,,,,,,,,,,,,,,,,,,,,,,,,,
mauriello,001,2022-11-21_24h46.54.267,Info_measure_main_exp,2022.2.2,Win32,61.06497313,,,,,,,,,,,,,,,,,,masks/mask_004.jpg,,,,,,,,,,,,,,,,,,,,,,,,,,,,,,,,,,,,,,,,,,,0,3,3,3,1,,,,,,,,,,,,,,,,,,,,,,,,,,,,,,,,,,,,,,,,,,,,,,
mauriello,001,2022-11-21_24h46.54.267,Info_measure_main_exp,2022.2.2,Win32,61.06497313,,,,,,,,,,,,,,,,,,masks/mask_005.jpg,,,,,,,,,,,,,,,,,,,,,,,,,,,,,,,,,,,,,,,,,,,0,4,4,4,1,,,,,,,,,,,,,,,,,,,,,,,,,,,,,,,,,,,,,,,,,,,,,,
mauriello,001,2022-11-21_24h46.54.267,Info_measure_main_exp,2022.2.2,Win32,61.06497313,,,,,,,,,,,,,,,,,,masks/mask_001.jpg,,,,,,,,,,,,,,,,,,,,,,,,,,,,,,,,,,,,,,,,,,,,,,,,0,0,0,0,1,,,,,,,,,,,,,,,,,,,,,,,,,,,,,,,,,,,,,,,,,
mauriello,001,2022-11-21_24h46.54.267,Info_measure_main_exp,2022.2.2,Win32,61.06497313,,,,,,,,,,,,,,,,,,masks/mask_003.jpg,,,,,,,,,,,,,,,,,,,,,,,,,,,,,,,,,,,,,,,,,,,,,,,,0,1,1,2,1,,,,,,,,,,,,,,,,,,,,,,,,,,,,,,,,,,,,,,,,,
mauriello,001,2022-11-21_24h46.54.267,Info_measure_main_exp,2022.2.2,Win32,61.06497313,,,,,,,,,,,,,,,,,,masks/mask_004.jpg,,,,,,,,,,,,,,,,,,,,,,,,,,,,,,,,,,,,,,,,,,,,,,,,0,2,2,3,1,,,,,,,,,,,,,,,,,,,,,,,,,,,,,,,,,,,,,,,,,
mauriello,001,2022-11-21_24h46.54.267,Info_measure_main_exp,2022.2.2,Win32,61.06497313,,,,,,,,,,,,,,,,,,masks/mask_005.jpg,,,,,,,,,,,,,,,,,,,,,,,,,,,,,,,,,,,,,,,,,,,,,,,,0,3,3,4,1,,,,,,,,,,,,,,,,,,,,,,,,,,,,,,,,,,,,,,,,,
mauriello,001,2022-11-21_24h46.54.267,Info_measure_main_exp,2022.2.2,Win32,61.06497313,,,,,,,,,,,,,,,,,,masks/mask_002.jpg,,,,,,,,,,,,,,,,,,,,,,,,,,,,,,,,,,,,,,,,,,,,,,,,0,4,4,1,1,,,,,,,,,,,,,,,,,,,,,,,,,,,,,,,,,,,,,,,,,
mauriello,001,2022-11-21_24h46.54.267,Info_measure_main_exp,2022.2.2,Win32,61.06497313,,,,,,,,,,,,,,,,,,,,,,,,,,,,,,3,1.0329,1,,,,,,,,,,,,0,131,5,5,1950,2142,absent_patch/patch0001950.jpg,absent_patch/patch0002142.jpg,,,,,,,,,,,,,,,,,,,,-0.035185185,-0.092592593,1,0,0,response5disk,32,0.002777778,-0.012037037,1,0,0,center_square,0,31,31,83,1,,,,,,,,,,,,,,,,,,,,,,,
mauriello,001,2022-11-21_24h46.54.267,Info_measure_main_exp,2022.2.2,Win32,61.06497313,,,,,,,,,,,,,,,,,,masks/mask_003.jpg,,,,,,,,,,,,,,,,,,,,,,,,,,,,,,,,,,,,,,,,,,,0,0,0,2,1,,,,,,,,,,,,,,,,,,,,,,,,,,,,,,,,,,,,,,,,,,,,,,
mauriello,001,2022-11-21_24h46.54.267,Info_measure_main_exp,2022.2.2,Win32,61.06497313,,,,,,,,,,,,,,,,,,masks/mask_004.jpg,,,,,,,,,,,,,,,,,,,,,,,,,,,,,,,,,,,,,,,,,,,0,1,1,3,1,,,,,,,,,,,,,,,,,,,,,,,,,,,,,,,,,,,,,,,,,,,,,,
mauriello,001,2022-11-21_24h46.54.267,Info_measure_main_exp,2022.2.2,Win32,61.06497313,,,,,,,,,,,,,,,,,,masks/mask_001.jpg,,,,,,,,,,,,,,,,,,,,,,,,,,,,,,,,,,,,,,,,,,,0,2,2,0,1,,,,,,,,,,,,,,,,,,,,,,,,,,,,,,,,,,,,,,,,,,,,,,
mauriello,001,2022-11-21_24h46.54.267,Info_measure_main_exp,2022.2.2,Win32,61.06497313,,,,,,,,,,,,,,,,,,masks/mask_005.jpg,,,,,,,,,,,,,,,,,,,,,,,,,,,,,,,,,,,,,,,,,,,0,3,3,4,1,,,,,,,,,,,,,,,,,,,,,,,,,,,,,,,,,,,,,,,,,,,,,,
mauriello,001,2022-11-21_24h46.54.267,Info_measure_main_exp,2022.2.2,Win32,61.06497313,,,,,,,,,,,,,,,,,,masks/mask_002.jpg,,,,,,,,,,,,,,,,,,,,,,,,,,,,,,,,,,,,,,,,,,,0,4,4,1,1,,,,,,,,,,,,,,,,,,,,,,,,,,,,,,,,,,,,,,,,,,,,,,
mauriello,001,2022-11-21_24h46.54.267,Info_measure_main_exp,2022.2.2,Win32,61.06497313,,,,,,,,,,,,,,,,,,masks/mask_003.jpg,,,,,,,,,,,,,,,,,,,,,,,,,,,,,,,,,,,,,,,,,,,,,,,,0,0,0,2,1,,,,,,,,,,,,,,,,,,,,,,,,,,,,,,,,,,,,,,,,,
mauriello,001,2022-11-21_24h46.54.267,Info_measure_main_exp,2022.2.2,Win32,61.06497313,,,,,,,,,,,,,,,,,,masks/mask_001.jpg,,,,,,,,,,,,,,,,,,,,,,,,,,,,,,,,,,,,,,,,,,,,,,,,0,1,1,0,1,,,,,,,,,,,,,,,,,,,,,,,,,,,,,,,,,,,,,,,,,
mauriello,001,2022-11-21_24h46.54.267,Info_measure_main_exp,2022.2.2,Win32,61.06497313,,,,,,,,,,,,,,,,,,masks/mask_002.jpg,,,,,,,,,,,,,,,,,,,,,,,,,,,,,,,,,,,,,,,,,,,,,,,,0,2,2,1,1,,,,,,,,,,,,,,,,,,,,,,,,,,,,,,,,,,,,,,,,,
mauriello,001,2022-11-21_24h46.54.267,Info_measure_main_exp,2022.2.2,Win32,61.06497313,,,,,,,,,,,,,,,,,,masks/mask_005.jpg,,,,,,,,,,,,,,,,,,,,,,,,,,,,,,,,,,,,,,,,,,,,,,,,0,3,3,4,1,,,,,,,,,,,,,,,,,,,,,,,,,,,,,,,,,,,,,,,,,
mauriello,001,2022-11-21_24h46.54.267,Info_measure_main_exp,2022.2.2,Win32,61.06497313,,,,,,,,,,,,,,,,,,masks/mask_004.jpg,,,,,,,,,,,,,,,,,,,,,,,,,,,,,,,,,,,,,,,,,,,,,,,,0,4,4,3,1,,,,,,,,,,,,,,,,,,,,,,,,,,,,,,,,,,,,,,,,,
mauriello,001,2022-11-21_24h46.54.267,Info_measure_main_exp,2022.2.2,Win32,61.06497313,,,,,,,,,,,,,,,,,,,,,,,,,,,,,,7,1.0732,1,,,,,,,,,,,,0,131,5,5,2154,1974,absent_patch/patch0002154.jpg,absent_patch/patch0001974.jpg,,,,,,,,,,,,,,,,,,,,0.076851852,0.090740741,1,0,0,response1disk,33,0.005555556,0.002777778,1,0,0,center_square,0,32,32,82,1,,,,,,,,,,,,,,,,,,,,,,,
mauriello,001,2022-11-21_24h46.54.267,Info_measure_main_exp,2022.2.2,Win32,61.06497313,,,,,,,,,,,,,,,,,,masks/mask_001.jpg,,,,,,,,,,,,,,,,,,,,,,,,,,,,,,,,,,,,,,,,,,,0,0,0,0,1,,,,,,,,,,,,,,,,,,,,,,,,,,,,,,,,,,,,,,,,,,,,,,
mauriello,001,2022-11-21_24h46.54.267,Info_measure_main_exp,2022.2.2,Win32,61.06497313,,,,,,,,,,,,,,,,,,masks/mask_005.jpg,,,,,,,,,,,,,,,,,,,,,,,,,,,,,,,,,,,,,,,,,,,0,1,1,4,1,,,,,,,,,,,,,,,,,,,,,,,,,,,,,,,,,,,,,,,,,,,,,,
mauriello,001,2022-11-21_24h46.54.267,Info_measure_main_exp,2022.2.2,Win32,61.06497313,,,,,,,,,,,,,,,,,,masks/mask_004.jpg,,,,,,,,,,,,,,,,,,,,,,,,,,,,,,,,,,,,,,,,,,,0,2,2,3,1,,,,,,,,,,,,,,,,,,,,,,,,,,,,,,,,,,,,,,,,,,,,,,
mauriello,001,2022-11-21_24h46.54.267,Info_measure_main_exp,2022.2.2,Win32,61.06497313,,,,,,,,,,,,,,,,,,masks/mask_003.jpg,,,,,,,,,,,,,,,,,,,,,,,,,,,,,,,,,,,,,,,,,,,0,3,3,2,1,,,,,,,,,,,,,,,,,,,,,,,,,,,,,,,,,,,,,,,,,,,,,,
mauriello,001,2022-11-21_24h46.54.267,Info_measure_main_exp,2022.2.2,Win32,61.06497313,,,,,,,,,,,,,,,,,,masks/mask_002.jpg,,,,,,,,,,,,,,,,,,,,,,,,,,,,,,,,,,,,,,,,,,,0,4,4,1,1,,,,,,,,,,,,,,,,,,,,,,,,,,,,,,,,,,,,,,,,,,,,,,
mauriello,001,2022-11-21_24h46.54.267,Info_measure_main_exp,2022.2.2,Win32,61.06497313,,,,,,,,,,,,,,,,,,masks/mask_003.jpg,,,,,,,,,,,,,,,,,,,,,,,,,,,,,,,,,,,,,,,,,,,,,,,,0,0,0,2,1,,,,,,,,,,,,,,,,,,,,,,,,,,,,,,,,,,,,,,,,,
mauriello,001,2022-11-21_24h46.54.267,Info_measure_main_exp,2022.2.2,Win32,61.06497313,,,,,,,,,,,,,,,,,,masks/mask_002.jpg,,,,,,,,,,,,,,,,,,,,,,,,,,,,,,,,,,,,,,,,,,,,,,,,0,1,1,1,1,,,,,,,,,,,,,,,,,,,,,,,,,,,,,,,,,,,,,,,,,
mauriello,001,2022-11-21_24h46.54.267,Info_measure_main_exp,2022.2.2,Win32,61.06497313,,,,,,,,,,,,,,,,,,masks/mask_004.jpg,,,,,,,,,,,,,,,,,,,,,,,,,,,,,,,,,,,,,,,,,,,,,,,,0,2,2,3,1,,,,,,,,,,,,,,,,,,,,,,,,,,,,,,,,,,,,,,,,,
mauriello,001,2022-11-21_24h46.54.267,Info_measure_main_exp,2022.2.2,Win32,61.06497313,,,,,,,,,,,,,,,,,,masks/mask_005.jpg,,,,,,,,,,,,,,,,,,,,,,,,,,,,,,,,,,,,,,,,,,,,,,,,0,3,3,4,1,,,,,,,,,,,,,,,,,,,,,,,,,,,,,,,,,,,,,,,,,
mauriello,001,2022-11-21_24h46.54.267,Info_measure_main_exp,2022.2.2,Win32,61.06497313,,,,,,,,,,,,,,,,,,masks/mask_001.jpg,,,,,,,,,,,,,,,,,,,,,,,,,,,,,,,,,,,,,,,,,,,,,,,,0,4,4,0,1,,,,,,,,,,,,,,,,,,,,,,,,,,,,,,,,,,,,,,,,,
mauriello,001,2022-11-21_24h46.54.267,Info_measure_main_exp,2022.2.2,Win32,61.06497313,,,,,,,,,,,,,,,,,,,,,,,,,,,,,,4,1.0604,1,,,,,,,,,,,,0,131,5,5,2154,2214,absent_patch/patch0002154.jpg,absent_patch/patch0002214.jpg,,,,,,,,,,,,,,,,,,,,0.02037037,-0.1,1,0,0,response3disk,34,-0.005555556,-0.001851852,1,0,0,center_square,0,33,33,67,1,,,,,,,,,,,,,,,,,,,,,,,
mauriello,001,2022-11-21_24h46.54.267,Info_measure_main_exp,2022.2.2,Win32,61.06497313,,,,,,,,,,,,,,,,,,masks/mask_003.jpg,,,,,,,,,,,,,,,,,,,,,,,,,,,,,,,,,,,,,,,,,,,0,0,0,2,1,,,,,,,,,,,,,,,,,,,,,,,,,,,,,,,,,,,,,,,,,,,,,,
mauriello,001,2022-11-21_24h46.54.267,Info_measure_main_exp,2022.2.2,Win32,61.06497313,,,,,,,,,,,,,,,,,,masks/mask_004.jpg,,,,,,,,,,,,,,,,,,,,,,,,,,,,,,,,,,,,,,,,,,,0,1,1,3,1,,,,,,,,,,,,,,,,,,,,,,,,,,,,,,,,,,,,,,,,,,,,,,
mauriello,001,2022-11-21_24h46.54.267,Info_measure_main_exp,2022.2.2,Win32,61.06497313,,,,,,,,,,,,,,,,,,masks/mask_001.jpg,,,,,,,,,,,,,,,,,,,,,,,,,,,,,,,,,,,,,,,,,,,0,2,2,0,1,,,,,,,,,,,,,,,,,,,,,,,,,,,,,,,,,,,,,,,,,,,,,,
